success,rt,trial_type,trial_index,time_elapsed,run_id,condition,fbclid,response,question_order,min_width,min_height,inner_width,inner_height,stimulus,sequence,backwards,responses,score_an,score_pc,score_ls,event_history,game_type,practice,trial_id,trial_duration,exp_stage,block_num,stimulus_duration,choices,target_present,num_stimuli,correct_response,correct_trial,order_and_color_of_rectangles,target_rectangle_location,ITIParams,correct,generated_BDM_value,blocks_completed,prevBlockType,switch_next_block,numberStim,bonus,overall_accuracy,missed_response
True,1744.0,fullscreen,0,2757,21,1,IwAR2HSDgqeI167ptqdVCLLJyuYfl3smEAPD9sbuFFx9lj-T_2Zu4xb-lAJTQ,,,,,,,,,,,,,,,,,,,,,,,,,,,,,,,,,,,,,,
,5544.0,survey-multi-choice,1,8306,21,1,IwAR2HSDgqeI167ptqdVCLLJyuYfl3smEAPD9sbuFFx9lj-T_2Zu4xb-lAJTQ,"{""Consent_response"":""I agree to take part in this study.""}",[0],,,,,,,,,,,,,,,,,,,,,,,,,,,,,,,,,,,,
,2350.0,instructions,2,10657,21,1,IwAR2HSDgqeI167ptqdVCLLJyuYfl3smEAPD9sbuFFx9lj-T_2Zu4xb-lAJTQ,,,,,,,,,,,,,,,,,,,,,,,,,,,,,,,,,,,,,,
,16110.0,instructions,3,26768,21,1,IwAR2HSDgqeI167ptqdVCLLJyuYfl3smEAPD9sbuFFx9lj-T_2Zu4xb-lAJTQ,,,,,,,,,,,,,,,,,,,,,,,,,,,,,,,,,,,,,,
,,screen-check,4,26769,21,1,IwAR2HSDgqeI167ptqdVCLLJyuYfl3smEAPD9sbuFFx9lj-T_2Zu4xb-lAJTQ,,,258.0,364.0,1536.0,864.0,,,,,,,,,,,,,,,,,,,,,,,,,,,,,,,,
,,html-keyboard-response,5,27183,21,1,IwAR2HSDgqeI167ptqdVCLLJyuYfl3smEAPD9sbuFFx9lj-T_2Zu4xb-lAJTQ,,,,,,,"<p style=""font-size: 48px;"">+</p>",,,,,,,,,,,,,,,,,,,,,,,,,,,,,,,
,5048.300000071526,spatial-recall,6,35147,21,1,IwAR2HSDgqeI167ptqdVCLLJyuYfl3smEAPD9sbuFFx9lj-T_2Zu4xb-lAJTQ,,,,,,,,"[6,9,4,1]",False,"[6,9,4,1]",1.0,4.0,4.0,"[{""button"":6,""time"":1282},{""button"":9,""time"":2170.8000000715256},{""button"":4,""time"":3026.3000000715256},{""button"":1,""time"":3865.100000023842},{""button"":""submit"",""time"":5048.300000071526}]",spatial_recall,True,,,,,,,,,,,,,,,,,,,,,,
,,html-keyboard-response,7,36162,21,1,IwAR2HSDgqeI167ptqdVCLLJyuYfl3smEAPD9sbuFFx9lj-T_2Zu4xb-lAJTQ,,,,,,,<p>Correct!</p>,,,,,,,,,,,,,,,,,,,,,,,,,,,,,,,
,,screen-check,8,36164,21,1,IwAR2HSDgqeI167ptqdVCLLJyuYfl3smEAPD9sbuFFx9lj-T_2Zu4xb-lAJTQ,,,258.0,364.0,1536.0,864.0,,,,,,,,,,,,,,,,,,,,,,,,,,,,,,,,
,,html-keyboard-response,9,36568,21,1,IwAR2HSDgqeI167ptqdVCLLJyuYfl3smEAPD9sbuFFx9lj-T_2Zu4xb-lAJTQ,,,,,,,"<p style=""font-size: 48px;"">+</p>",,,,,,,,,,,,,,,,,,,,,,,,,,,,,,,
,10195.899999976158,spatial-recall,10,49682,21,1,IwAR2HSDgqeI167ptqdVCLLJyuYfl3smEAPD9sbuFFx9lj-T_2Zu4xb-lAJTQ,,,,,,,,"[7,12,1,15]",False,"[7,12,1,15]",1.0,4.0,4.0,"[{""button"":7,""time"":1706.1000000238419},{""button"":1,""time"":3538.7000000476837},{""button"":""clear"",""time"":5025.5},{""button"":7,""time"":6334.399999976158},{""button"":12,""time"":7265.899999976158},{""button"":1,""time"":8310.300000071526},{""button"":15,""time"":9295.700000047684},{""button"":""submit"",""time"":10195.899999976158}]",spatial_recall,True,,,,,,,,,,,,,,,,,,,,,,
,,html-keyboard-response,11,50695,21,1,IwAR2HSDgqeI167ptqdVCLLJyuYfl3smEAPD9sbuFFx9lj-T_2Zu4xb-lAJTQ,,,,,,,<p>Correct!</p>,,,,,,,,,,,,,,,,,,,,,,,,,,,,,,,
,,screen-check,12,50696,21,1,IwAR2HSDgqeI167ptqdVCLLJyuYfl3smEAPD9sbuFFx9lj-T_2Zu4xb-lAJTQ,,,258.0,364.0,1536.0,864.0,,,,,,,,,,,,,,,,,,,,,,,,,,,,,,,,
,,html-keyboard-response,13,51101,21,1,IwAR2HSDgqeI167ptqdVCLLJyuYfl3smEAPD9sbuFFx9lj-T_2Zu4xb-lAJTQ,,,,,,,"<p style=""font-size: 48px;"">+</p>",,,,,,,,,,,,,,,,,,,,,,,,,,,,,,,
,5287.5,spatial-recall,14,59294,21,1,IwAR2HSDgqeI167ptqdVCLLJyuYfl3smEAPD9sbuFFx9lj-T_2Zu4xb-lAJTQ,,,,,,,,"[11,13,9,15]",False,"[11,13,9,15]",1.0,4.0,4.0,"[{""button"":11,""time"":1279.8000000715256},{""button"":13,""time"":2259.7000000476837},{""button"":9,""time"":3102.100000023842},{""button"":15,""time"":4215},{""button"":""submit"",""time"":5287.5}]",spatial_recall,True,,,,,,,,,,,,,,,,,,,,,,
,,html-keyboard-response,15,60299,21,1,IwAR2HSDgqeI167ptqdVCLLJyuYfl3smEAPD9sbuFFx9lj-T_2Zu4xb-lAJTQ,,,,,,,<p>Correct!</p>,,,,,,,,,,,,,,,,,,,,,,,,,,,,,,,
,,screen-check,16,60300,21,1,IwAR2HSDgqeI167ptqdVCLLJyuYfl3smEAPD9sbuFFx9lj-T_2Zu4xb-lAJTQ,,,258.0,364.0,1536.0,864.0,,,,,,,,,,,,,,,,,,,,,,,,,,,,,,,,
,,html-keyboard-response,17,60707,21,1,IwAR2HSDgqeI167ptqdVCLLJyuYfl3smEAPD9sbuFFx9lj-T_2Zu4xb-lAJTQ,,,,,,,"<p style=""font-size: 48px;"">+</p>",,,,,,,,,,,,,,,,,,,,,,,,,,,,,,,
,5246.0,spatial-recall,18,68854,21,1,IwAR2HSDgqeI167ptqdVCLLJyuYfl3smEAPD9sbuFFx9lj-T_2Zu4xb-lAJTQ,,,,,,,,"[14,9,15,7]",False,"[14,9,15,7]",1.0,4.0,4.0,"[{""button"":14,""time"":1244.5},{""button"":9,""time"":2051.899999976158},{""button"":15,""time"":3050.7000000476837},{""button"":7,""time"":3859.5},{""button"":""submit"",""time"":5246}]",spatial_recall,True,,,,,,,,,,,,,,,,,,,,,,
,,html-keyboard-response,19,69867,21,1,IwAR2HSDgqeI167ptqdVCLLJyuYfl3smEAPD9sbuFFx9lj-T_2Zu4xb-lAJTQ,,,,,,,<p>Correct!</p>,,,,,,,,,,,,,,,,,,,,,,,,,,,,,,,
,,screen-check,20,69869,21,1,IwAR2HSDgqeI167ptqdVCLLJyuYfl3smEAPD9sbuFFx9lj-T_2Zu4xb-lAJTQ,,,258.0,364.0,1536.0,864.0,,,,,,,,,,,,,,,,,,,,,,,,,,,,,,,,
,,html-keyboard-response,21,70275,21,1,IwAR2HSDgqeI167ptqdVCLLJyuYfl3smEAPD9sbuFFx9lj-T_2Zu4xb-lAJTQ,,,,,,,"<p style=""font-size: 48px;"">+</p>",,,,,,,,,,,,,,,,,,,,,,,,,,,,,,,
,4716.700000047684,spatial-recall,22,77896,21,1,IwAR2HSDgqeI167ptqdVCLLJyuYfl3smEAPD9sbuFFx9lj-T_2Zu4xb-lAJTQ,,,,,,,,"[4,12,3,8]",False,"[4,12,3,8]",1.0,4.0,4.0,"[{""button"":4,""time"":944.7000000476837},{""button"":12,""time"":1879.7999999523163},{""button"":3,""time"":2813.5},{""button"":8,""time"":3722},{""button"":""submit"",""time"":4716.700000047684}]",spatial_recall,True,,,,,,,,,,,,,,,,,,,,,,
,,html-keyboard-response,23,78908,21,1,IwAR2HSDgqeI167ptqdVCLLJyuYfl3smEAPD9sbuFFx9lj-T_2Zu4xb-lAJTQ,,,,,,,<p>Correct!</p>,,,,,,,,,,,,,,,,,,,,,,,,,,,,,,,
,,screen-check,24,78910,21,1,IwAR2HSDgqeI167ptqdVCLLJyuYfl3smEAPD9sbuFFx9lj-T_2Zu4xb-lAJTQ,,,258.0,364.0,1536.0,864.0,,,,,,,,,,,,,,,,,,,,,,,,,,,,,,,,
,,html-keyboard-response,25,79314,21,1,IwAR2HSDgqeI167ptqdVCLLJyuYfl3smEAPD9sbuFFx9lj-T_2Zu4xb-lAJTQ,,,,,,,"<p style=""font-size: 48px;"">+</p>",,,,,,,,,,,,,,,,,,,,,,,,,,,,,,,
,4906.899999976158,spatial-recall,26,87125,21,1,IwAR2HSDgqeI167ptqdVCLLJyuYfl3smEAPD9sbuFFx9lj-T_2Zu4xb-lAJTQ,,,,,,,,"[2,8,3,14]",False,"[2,8,3,14]",1.0,4.0,4.0,"[{""button"":2,""time"":1206.8999999761581},{""button"":8,""time"":2050.3000000715256},{""button"":3,""time"":2880.5},{""button"":14,""time"":3757.5},{""button"":""submit"",""time"":4906.899999976158}]",spatial_recall,True,,,,,,,,,,,,,,,,,,,,,,
,,html-keyboard-response,27,88140,21,1,IwAR2HSDgqeI167ptqdVCLLJyuYfl3smEAPD9sbuFFx9lj-T_2Zu4xb-lAJTQ,,,,,,,<p>Correct!</p>,,,,,,,,,,,,,,,,,,,,,,,,,,,,,,,
,,screen-check,28,88142,21,1,IwAR2HSDgqeI167ptqdVCLLJyuYfl3smEAPD9sbuFFx9lj-T_2Zu4xb-lAJTQ,,,258.0,364.0,1536.0,864.0,,,,,,,,,,,,,,,,,,,,,,,,,,,,,,,,
,,html-keyboard-response,29,88559,21,1,IwAR2HSDgqeI167ptqdVCLLJyuYfl3smEAPD9sbuFFx9lj-T_2Zu4xb-lAJTQ,,,,,,,"<p style=""font-size: 48px;"">+</p>",,,,,,,,,,,,,,,,,,,,,,,,,,,,,,,
,4927.300000071526,spatial-recall,30,96396,21,1,IwAR2HSDgqeI167ptqdVCLLJyuYfl3smEAPD9sbuFFx9lj-T_2Zu4xb-lAJTQ,,,,,,,,"[7,14,8,6]",False,"[7,14,8,6]",1.0,4.0,4.0,"[{""button"":7,""time"":1266.8999999761581},{""button"":14,""time"":2121.2000000476837},{""button"":8,""time"":3007.8000000715256},{""button"":6,""time"":3934.399999976158},{""button"":""submit"",""time"":4927.300000071526}]",spatial_recall,True,,,,,,,,,,,,,,,,,,,,,,
,,html-keyboard-response,31,97412,21,1,IwAR2HSDgqeI167ptqdVCLLJyuYfl3smEAPD9sbuFFx9lj-T_2Zu4xb-lAJTQ,,,,,,,<p>Correct!</p>,,,,,,,,,,,,,,,,,,,,,,,,,,,,,,,
,,screen-check,32,97414,21,1,IwAR2HSDgqeI167ptqdVCLLJyuYfl3smEAPD9sbuFFx9lj-T_2Zu4xb-lAJTQ,,,258.0,364.0,1536.0,864.0,,,,,,,,,,,,,,,,,,,,,,,,,,,,,,,,
,,html-keyboard-response,33,97819,21,1,IwAR2HSDgqeI167ptqdVCLLJyuYfl3smEAPD9sbuFFx9lj-T_2Zu4xb-lAJTQ,,,,,,,"<p style=""font-size: 48px;"">+</p>",,,,,,,,,,,,,,,,,,,,,,,,,,,,,,,
,8048.200000047684,spatial-recall,34,108787,21,1,IwAR2HSDgqeI167ptqdVCLLJyuYfl3smEAPD9sbuFFx9lj-T_2Zu4xb-lAJTQ,,,,,,,,"[10,3,13,4]",False,"[10,3,13,4]",1.0,4.0,4.0,"[{""button"":10,""time"":4185.200000047684},{""button"":3,""time"":5088.799999952316},{""button"":13,""time"":6197},{""button"":4,""time"":7051.399999976158},{""button"":""submit"",""time"":8048.200000047684}]",spatial_recall,True,,,,,,,,,,,,,,,,,,,,,,
,,html-keyboard-response,35,109799,21,1,IwAR2HSDgqeI167ptqdVCLLJyuYfl3smEAPD9sbuFFx9lj-T_2Zu4xb-lAJTQ,,,,,,,<p>Correct!</p>,,,,,,,,,,,,,,,,,,,,,,,,,,,,,,,
,4085.0,html-keyboard-response,36,113887,21,1,IwAR2HSDgqeI167ptqdVCLLJyuYfl3smEAPD9sbuFFx9lj-T_2Zu4xb-lAJTQ, ,,,,,,<p> Great work! You will now have practice for the next game. Press any key to continue. </p>,,,,,,,,,,,,,,,,,,,,,,,,,,,,,,,
,30294.0,instructions,37,144183,21,1,IwAR2HSDgqeI167ptqdVCLLJyuYfl3smEAPD9sbuFFx9lj-T_2Zu4xb-lAJTQ,,,,,,,"[""<div class=\""centerbox\"">\n      <p class=\""block-text\"">Place your <b>index finger</b> on the <b>comma key (,)</b> and your <b>middle finger</b> on the <b>period key (.)</b></p>\n      <p class=\""block-text\"">During this task, on each trial rectangles will appear on the screen. The rectangles can be either black or white in color.</p>\n      <p class=\""block-text\"">On some trials, <b>one</b> of these rectangles will be a <b>vertical white rectangle</b>. We will call this rectangle the 'target'.</p>\n      <div style=\""display: flex; align-items: center; justify-content: center; padding-top: 80px; padding-bottom: 80px;\"">\n      <p style=\""width: 70%; font-size: 24px;\"">The target looks like: </p>\n      <div style=\""display: flex; justify-content: center; align-items: center; width:100%;\"">\n      <div id=\""target\"" class=\""box\"" style=\""background-color:white; width:40px; height:80px;\""></div>\n      </div>\n      </div>\n      </div>\n      "",""\n    <div class=\""centerbox\"">\n      <p class=\""block-text\"">Your task is to determine whether a target is absent or present on each trial.</p>\n      <p class=\""block-text\"">If you determine a target is <b>absent</b>, press your <b>index finger</b>, and if you determine a target is <b>present</b>, press your <b>middle finger</b>.</p>\n      <p class=\""block-text\"">We'll start with a practice round. During practice, you will receive feedback and a reminder of the rules. These will be taken out for the test, so make sure you understand the instructions before moving on.</p>\n      <p class = block-text>Try to respond as quickly and accurately as possible.</p>\n    </div>""]",,,,,,,,,,instructions,,,,,,,,,,,,,,,,,,,,,
,1716.0,html-keyboard-response,38,145901,21,1,IwAR2HSDgqeI167ptqdVCLLJyuYfl3smEAPD9sbuFFx9lj-T_2Zu4xb-lAJTQ,enter,,,,,,"<div class=""bigbox""><div class=""picture_box""><p class=""block-text""><div class = centerbox><p class = center-block-text>Press <i>enter</i> to begin practice.</p></div></p></div></div>",,,,,,,,,,practice_feedback,60000.0,practice,0.0,,,,,,,,,,,,,,,,,,
,,html-keyboard-response,39,146414,21,1,IwAR2HSDgqeI167ptqdVCLLJyuYfl3smEAPD9sbuFFx9lj-T_2Zu4xb-lAJTQ,,,,,,,"<div class=""centerbox""><div class=""fixation"">+</div></div>",,,,,,,,,,practice_fixation,500.0,practice,0.0,500.0,,,,,,,,,,,,,,,,,
,1873.0,html-keyboard-response,40,148432,21,conjunction,IwAR2HSDgqeI167ptqdVCLLJyuYfl3smEAPD9sbuFFx9lj-T_2Zu4xb-lAJTQ,",",,,,,,"<div class=""container"" style=""position: absolute; left: 50%; top: 50%; transform: translate(-50%, -50%); width: 1075.1999999999998px; height: 510.99999999999994px;""><div id=""white-distractor-element""  class=""box"" style=""position: absolute; left: 331.7333333333333px; top: 38.19999999999999px; width: 40px; height: 80px; background-color: white; transform: rotate(90deg); transform-origin: center;""></div><div id=""white-distractor-element""  class=""box"" style=""position: absolute; left: 703.4666666666666px; top: 38.19999999999999px; width: 40px; height: 80px; background-color: white; transform: rotate(90deg); transform-origin: center;""></div><div id=""white-distractor-element""  class=""box"" style=""position: absolute; left: 331.7333333333333px; top: 156.39999999999998px; width: 40px; height: 80px; background-color: white; transform: rotate(90deg); transform-origin: center;""></div><div id=""black-distractor-element""  class=""box"" style=""position: absolute; left: 703.4666666666666px; top: 156.39999999999998px; width: 40px; height: 80px; background-color: black;""></div><div id=""white-distractor-element""  class=""box"" style=""position: absolute; left: 331.7333333333333px; top: 274.59999999999997px; width: 40px; height: 80px; background-color: white; transform: rotate(90deg); transform-origin: center;""></div><div id=""white-distractor-element""  class=""box"" style=""position: absolute; left: 703.4666666666666px; top: 274.59999999999997px; width: 40px; height: 80px; background-color: white; transform: rotate(90deg); transform-origin: center;""></div><div id=""white-distractor-element""  class=""box"" style=""position: absolute; left: 331.7333333333333px; top: 392.79999999999995px; width: 40px; height: 80px; background-color: white; transform: rotate(90deg); transform-origin: center;""></div><div id=""black-distractor-element""  class=""box"" style=""position: absolute; left: 703.4666666666666px; top: 392.79999999999995px; width: 40px; height: 80px; background-color: black;""></div></div>",,,,,,,,vs,True,practice_trial,2000.0,practice,0.0,1500.0,"[""."","",""]",0.0,8.0,",",1.0,"[""white horizontal"",""white horizontal"",""white horizontal"",""black vertical"",""white horizontal"",""white horizontal"",""white horizontal"",""black vertical""]",,,,,,,,,,,
,,html-keyboard-response,41,148948,21,1,IwAR2HSDgqeI167ptqdVCLLJyuYfl3smEAPD9sbuFFx9lj-T_2Zu4xb-lAJTQ,,,,,,,<div class=center-box><p class=center-text>Correct!</div></div>,,,,,,,,,,practice_feedback,500.0,practice,0.0,500.0,,,,,,,,,,,,,,,,,
,,html-keyboard-response,42,149087,21,1,IwAR2HSDgqeI167ptqdVCLLJyuYfl3smEAPD9sbuFFx9lj-T_2Zu4xb-lAJTQ,,,,,,,<div class = centerbox><div class = fixation>+</div></div>,,,,,,,,,,practice_ITI,126.23025879635348,practice,0.0,126.23025879635348,,,,,,,,"{""min"":0,""max"":5,""mean"":0.5}",,,,,,,,,
,,html-keyboard-response,43,149603,21,1,IwAR2HSDgqeI167ptqdVCLLJyuYfl3smEAPD9sbuFFx9lj-T_2Zu4xb-lAJTQ,,,,,,,"<div class=""centerbox""><div class=""fixation"">+</div></div>",,,,,,,,,,practice_fixation,500.0,practice,0.0,500.0,,,,,,,,,,,,,,,,,
,793.0,html-keyboard-response,44,151606,21,conjunction,IwAR2HSDgqeI167ptqdVCLLJyuYfl3smEAPD9sbuFFx9lj-T_2Zu4xb-lAJTQ,",",,,,,,"<div class=""container"" style=""position: absolute; left: 50%; top: 50%; transform: translate(-50%, -50%); width: 1075.1999999999998px; height: 510.99999999999994px;""><div id=""black-distractor-element""  class=""box"" style=""position: absolute; left: 331.7333333333333px; top: 38.19999999999999px; width: 40px; height: 80px; background-color: black;""></div><div id=""black-distractor-element""  class=""box"" style=""position: absolute; left: 703.4666666666666px; top: 38.19999999999999px; width: 40px; height: 80px; background-color: black;""></div><div id=""black-distractor-element""  class=""box"" style=""position: absolute; left: 331.7333333333333px; top: 156.39999999999998px; width: 40px; height: 80px; background-color: black;""></div><div id=""black-distractor-element""  class=""box"" style=""position: absolute; left: 703.4666666666666px; top: 156.39999999999998px; width: 40px; height: 80px; background-color: black;""></div><div id=""white-distractor-element""  class=""box"" style=""position: absolute; left: 331.7333333333333px; top: 274.59999999999997px; width: 40px; height: 80px; background-color: white; transform: rotate(90deg); transform-origin: center;""></div><div id=""black-distractor-element""  class=""box"" style=""position: absolute; left: 703.4666666666666px; top: 274.59999999999997px; width: 40px; height: 80px; background-color: black;""></div><div id=""white-distractor-element""  class=""box"" style=""position: absolute; left: 331.7333333333333px; top: 392.79999999999995px; width: 40px; height: 80px; background-color: white; transform: rotate(90deg); transform-origin: center;""></div><div id=""black-distractor-element""  class=""box"" style=""position: absolute; left: 703.4666666666666px; top: 392.79999999999995px; width: 40px; height: 80px; background-color: black;""></div></div>",,,,,,,,vs,True,practice_trial,2000.0,practice,0.0,1500.0,"[""."","",""]",0.0,8.0,",",1.0,"[""black vertical"",""black vertical"",""black vertical"",""black vertical"",""white horizontal"",""black vertical"",""white horizontal"",""black vertical""]",,,,,,,,,,,
,,html-keyboard-response,45,152123,21,1,IwAR2HSDgqeI167ptqdVCLLJyuYfl3smEAPD9sbuFFx9lj-T_2Zu4xb-lAJTQ,,,,,,,<div class=center-box><p class=center-text>Correct!</div></div>,,,,,,,,,,practice_feedback,500.0,practice,0.0,500.0,,,,,,,,,,,,,,,,,
,,html-keyboard-response,46,152217,21,1,IwAR2HSDgqeI167ptqdVCLLJyuYfl3smEAPD9sbuFFx9lj-T_2Zu4xb-lAJTQ,,,,,,,<div class = centerbox><div class = fixation>+</div></div>,,,,,,,,,,practice_ITI,86.12644615209106,practice,0.0,86.12644615209106,,,,,,,,"{""min"":0,""max"":5,""mean"":0.5}",,,,,,,,,
,,html-keyboard-response,47,152733,21,1,IwAR2HSDgqeI167ptqdVCLLJyuYfl3smEAPD9sbuFFx9lj-T_2Zu4xb-lAJTQ,,,,,,,"<div class=""centerbox""><div class=""fixation"">+</div></div>",,,,,,,,,,practice_fixation,500.0,practice,0.0,500.0,,,,,,,,,,,,,,,,,
,584.0,html-keyboard-response,48,154742,21,conjunction,IwAR2HSDgqeI167ptqdVCLLJyuYfl3smEAPD9sbuFFx9lj-T_2Zu4xb-lAJTQ,.,,,,,,"<div class=""container"" style=""position: absolute; left: 50%; top: 50%; transform: translate(-50%, -50%); width: 1075.1999999999998px; height: 510.99999999999994px;""><div id=""black-distractor-element""  class=""box"" style=""position: absolute; left: 331.7333333333333px; top: 38.19999999999999px; width: 40px; height: 80px; background-color: black;""></div><div id=""target"" class=""box"" style=""position: absolute; left: 703.4666666666666px; top: 38.19999999999999px; width: 40px; height: 80px; background-color: white;""></div><div id=""white-distractor-element""  class=""box"" style=""position: absolute; left: 331.7333333333333px; top: 156.39999999999998px; width: 40px; height: 80px; background-color: white; transform: rotate(90deg); transform-origin: center;""></div><div id=""white-distractor-element""  class=""box"" style=""position: absolute; left: 703.4666666666666px; top: 156.39999999999998px; width: 40px; height: 80px; background-color: white; transform: rotate(90deg); transform-origin: center;""></div><div id=""white-distractor-element""  class=""box"" style=""position: absolute; left: 331.7333333333333px; top: 274.59999999999997px; width: 40px; height: 80px; background-color: white; transform: rotate(90deg); transform-origin: center;""></div><div id=""black-distractor-element""  class=""box"" style=""position: absolute; left: 703.4666666666666px; top: 274.59999999999997px; width: 40px; height: 80px; background-color: black;""></div><div id=""white-distractor-element""  class=""box"" style=""position: absolute; left: 331.7333333333333px; top: 392.79999999999995px; width: 40px; height: 80px; background-color: white; transform: rotate(90deg); transform-origin: center;""></div><div id=""black-distractor-element""  class=""box"" style=""position: absolute; left: 703.4666666666666px; top: 392.79999999999995px; width: 40px; height: 80px; background-color: black;""></div></div>",,,,,,,,vs,True,practice_trial,2000.0,practice,0.0,1500.0,"[""."","",""]",1.0,8.0,.,1.0,"[""black vertical"",""white vertical"",""white horizontal"",""white horizontal"",""white horizontal"",""black vertical"",""white horizontal"",""black vertical""]",1.0,,,,,,,,,,
,,html-keyboard-response,49,155259,21,1,IwAR2HSDgqeI167ptqdVCLLJyuYfl3smEAPD9sbuFFx9lj-T_2Zu4xb-lAJTQ,,,,,,,<div class=center-box><p class=center-text>Correct!</div></div>,,,,,,,,,,practice_feedback,500.0,practice,0.0,500.0,,,,,,,,,,,,,,,,,
,,html-keyboard-response,50,155508,21,1,IwAR2HSDgqeI167ptqdVCLLJyuYfl3smEAPD9sbuFFx9lj-T_2Zu4xb-lAJTQ,,,,,,,<div class = centerbox><div class = fixation>+</div></div>,,,,,,,,,,practice_ITI,241.44448608805703,practice,0.0,241.44448608805703,,,,,,,,"{""min"":0,""max"":5,""mean"":0.5}",,,,,,,,,
,,html-keyboard-response,51,156020,21,1,IwAR2HSDgqeI167ptqdVCLLJyuYfl3smEAPD9sbuFFx9lj-T_2Zu4xb-lAJTQ,,,,,,,"<div class=""centerbox""><div class=""fixation"">+</div></div>",,,,,,,,,,practice_fixation,500.0,practice,0.0,500.0,,,,,,,,,,,,,,,,,
,667.0,html-keyboard-response,52,158034,21,conjunction,IwAR2HSDgqeI167ptqdVCLLJyuYfl3smEAPD9sbuFFx9lj-T_2Zu4xb-lAJTQ,.,,,,,,"<div class=""container"" style=""position: absolute; left: 50%; top: 50%; transform: translate(-50%, -50%); width: 1075.1999999999998px; height: 510.99999999999994px;""><div id=""target"" class=""box"" style=""position: absolute; left: 331.7333333333333px; top: 38.19999999999999px; width: 40px; height: 80px; background-color: white;""></div><div id=""white-distractor-element""  class=""box"" style=""position: absolute; left: 703.4666666666666px; top: 38.19999999999999px; width: 40px; height: 80px; background-color: white; transform: rotate(90deg); transform-origin: center;""></div><div id=""black-distractor-element""  class=""box"" style=""position: absolute; left: 331.7333333333333px; top: 156.39999999999998px; width: 40px; height: 80px; background-color: black;""></div><div id=""black-distractor-element""  class=""box"" style=""position: absolute; left: 703.4666666666666px; top: 156.39999999999998px; width: 40px; height: 80px; background-color: black;""></div><div id=""black-distractor-element""  class=""box"" style=""position: absolute; left: 331.7333333333333px; top: 274.59999999999997px; width: 40px; height: 80px; background-color: black;""></div><div id=""white-distractor-element""  class=""box"" style=""position: absolute; left: 703.4666666666666px; top: 274.59999999999997px; width: 40px; height: 80px; background-color: white; transform: rotate(90deg); transform-origin: center;""></div><div id=""white-distractor-element""  class=""box"" style=""position: absolute; left: 331.7333333333333px; top: 392.79999999999995px; width: 40px; height: 80px; background-color: white; transform: rotate(90deg); transform-origin: center;""></div><div id=""black-distractor-element""  class=""box"" style=""position: absolute; left: 703.4666666666666px; top: 392.79999999999995px; width: 40px; height: 80px; background-color: black;""></div></div>",,,,,,,,vs,True,practice_trial,2000.0,practice,0.0,1500.0,"[""."","",""]",1.0,8.0,.,1.0,"[""white vertical"",""white horizontal"",""black vertical"",""black vertical"",""black vertical"",""white horizontal"",""white horizontal"",""black vertical""]",0.0,,,,,,,,,,
,,html-keyboard-response,53,158548,21,1,IwAR2HSDgqeI167ptqdVCLLJyuYfl3smEAPD9sbuFFx9lj-T_2Zu4xb-lAJTQ,,,,,,,<div class=center-box><p class=center-text>Correct!</div></div>,,,,,,,,,,practice_feedback,500.0,practice,0.0,500.0,,,,,,,,,,,,,,,,,
,,html-keyboard-response,54,159034,21,1,IwAR2HSDgqeI167ptqdVCLLJyuYfl3smEAPD9sbuFFx9lj-T_2Zu4xb-lAJTQ,,,,,,,<div class = centerbox><div class = fixation>+</div></div>,,,,,,,,,,practice_ITI,468.9190597948433,practice,0.0,468.9190597948433,,,,,,,,"{""min"":0,""max"":5,""mean"":0.5}",,,,,,,,,
,,html-keyboard-response,55,159549,21,1,IwAR2HSDgqeI167ptqdVCLLJyuYfl3smEAPD9sbuFFx9lj-T_2Zu4xb-lAJTQ,,,,,,,"<div class=""centerbox""><div class=""fixation"">+</div></div>",,,,,,,,,,practice_fixation,500.0,practice,0.0,500.0,,,,,,,,,,,,,,,,,
,681.0,html-keyboard-response,56,161554,21,conjunction,IwAR2HSDgqeI167ptqdVCLLJyuYfl3smEAPD9sbuFFx9lj-T_2Zu4xb-lAJTQ,",",,,,,,"<div class=""container"" style=""position: absolute; left: 50%; top: 50%; transform: translate(-50%, -50%); width: 1075.1999999999998px; height: 510.99999999999994px;""><div id=""black-distractor-element""  class=""box"" style=""position: absolute; left: 183.03999999999996px; top: 4.428571428571421px; width: 40px; height: 80px; background-color: black;""></div><div id=""black-distractor-element""  class=""box"" style=""position: absolute; left: 406.0799999999999px; top: 4.428571428571421px; width: 40px; height: 80px; background-color: black;""></div><div id=""white-distractor-element""  class=""box"" style=""position: absolute; left: 629.1199999999999px; top: 4.428571428571421px; width: 40px; height: 80px; background-color: white; transform: rotate(90deg); transform-origin: center;""></div><div id=""black-distractor-element""  class=""box"" style=""position: absolute; left: 852.1599999999999px; top: 4.428571428571421px; width: 40px; height: 80px; background-color: black;""></div><div id=""white-distractor-element""  class=""box"" style=""position: absolute; left: 183.03999999999996px; top: 88.85714285714285px; width: 40px; height: 80px; background-color: white; transform: rotate(90deg); transform-origin: center;""></div><div id=""black-distractor-element""  class=""box"" style=""position: absolute; left: 406.0799999999999px; top: 88.85714285714285px; width: 40px; height: 80px; background-color: black;""></div><div id=""white-distractor-element""  class=""box"" style=""position: absolute; left: 629.1199999999999px; top: 88.85714285714285px; width: 40px; height: 80px; background-color: white; transform: rotate(90deg); transform-origin: center;""></div><div id=""black-distractor-element""  class=""box"" style=""position: absolute; left: 852.1599999999999px; top: 88.85714285714285px; width: 40px; height: 80px; background-color: black;""></div><div id=""white-distractor-element""  class=""box"" style=""position: absolute; left: 183.03999999999996px; top: 173.28571428571428px; width: 40px; height: 80px; background-color: white; transform: rotate(90deg); transform-origin: center;""></div><div id=""black-distractor-element""  class=""box"" style=""position: absolute; left: 406.0799999999999px; top: 173.28571428571428px; width: 40px; height: 80px; background-color: black;""></div><div id=""white-distractor-element""  class=""box"" style=""position: absolute; left: 629.1199999999999px; top: 173.28571428571428px; width: 40px; height: 80px; background-color: white; transform: rotate(90deg); transform-origin: center;""></div><div id=""black-distractor-element""  class=""box"" style=""position: absolute; left: 852.1599999999999px; top: 173.28571428571428px; width: 40px; height: 80px; background-color: black;""></div><div id=""black-distractor-element""  class=""box"" style=""position: absolute; left: 183.03999999999996px; top: 257.71428571428567px; width: 40px; height: 80px; background-color: black;""></div><div id=""black-distractor-element""  class=""box"" style=""position: absolute; left: 406.0799999999999px; top: 257.71428571428567px; width: 40px; height: 80px; background-color: black;""></div><div id=""black-distractor-element""  class=""box"" style=""position: absolute; left: 629.1199999999999px; top: 257.71428571428567px; width: 40px; height: 80px; background-color: black;""></div><div id=""white-distractor-element""  class=""box"" style=""position: absolute; left: 852.1599999999999px; top: 257.71428571428567px; width: 40px; height: 80px; background-color: white; transform: rotate(90deg); transform-origin: center;""></div><div id=""black-distractor-element""  class=""box"" style=""position: absolute; left: 183.03999999999996px; top: 342.1428571428571px; width: 40px; height: 80px; background-color: black;""></div><div id=""black-distractor-element""  class=""box"" style=""position: absolute; left: 406.0799999999999px; top: 342.1428571428571px; width: 40px; height: 80px; background-color: black;""></div><div id=""black-distractor-element""  class=""box"" style=""position: absolute; left: 629.1199999999999px; top: 342.1428571428571px; width: 40px; height: 80px; background-color: black;""></div><div id=""black-distractor-element""  class=""box"" style=""position: absolute; left: 852.1599999999999px; top: 342.1428571428571px; width: 40px; height: 80px; background-color: black;""></div><div id=""white-distractor-element""  class=""box"" style=""position: absolute; left: 183.03999999999996px; top: 426.57142857142856px; width: 40px; height: 80px; background-color: white; transform: rotate(90deg); transform-origin: center;""></div><div id=""black-distractor-element""  class=""box"" style=""position: absolute; left: 406.0799999999999px; top: 426.57142857142856px; width: 40px; height: 80px; background-color: black;""></div><div id=""black-distractor-element""  class=""box"" style=""position: absolute; left: 629.1199999999999px; top: 426.57142857142856px; width: 40px; height: 80px; background-color: black;""></div><div id=""black-distractor-element""  class=""box"" style=""position: absolute; left: 852.1599999999999px; top: 426.57142857142856px; width: 40px; height: 80px; background-color: black;""></div></div>",,,,,,,,vs,True,practice_trial,2000.0,practice,0.0,1500.0,"[""."","",""]",0.0,24.0,",",1.0,"[""black vertical"",""black vertical"",""white horizontal"",""black vertical"",""white horizontal"",""black vertical"",""white horizontal"",""black vertical"",""white horizontal"",""black vertical"",""white horizontal"",""black vertical"",""black vertical"",""black vertical"",""black vertical"",""white horizontal"",""black vertical"",""black vertical"",""black vertical"",""black vertical"",""white horizontal"",""black vertical"",""black vertical"",""black vertical""]",,,,,,,,,,,
,,html-keyboard-response,57,162072,21,1,IwAR2HSDgqeI167ptqdVCLLJyuYfl3smEAPD9sbuFFx9lj-T_2Zu4xb-lAJTQ,,,,,,,<div class=center-box><p class=center-text>Correct!</div></div>,,,,,,,,,,practice_feedback,500.0,practice,0.0,500.0,,,,,,,,,,,,,,,,,
,,html-keyboard-response,58,163467,21,1,IwAR2HSDgqeI167ptqdVCLLJyuYfl3smEAPD9sbuFFx9lj-T_2Zu4xb-lAJTQ,,,,,,,<div class = centerbox><div class = fixation>+</div></div>,,,,,,,,,,practice_ITI,1385.0574489248354,practice,0.0,1385.0574489248354,,,,,,,,"{""min"":0,""max"":5,""mean"":0.5}",,,,,,,,,
,,html-keyboard-response,59,163981,21,1,IwAR2HSDgqeI167ptqdVCLLJyuYfl3smEAPD9sbuFFx9lj-T_2Zu4xb-lAJTQ,,,,,,,"<div class=""centerbox""><div class=""fixation"">+</div></div>",,,,,,,,,,practice_fixation,500.0,practice,0.0,500.0,,,,,,,,,,,,,,,,,
,858.0,html-keyboard-response,60,165993,21,conjunction,IwAR2HSDgqeI167ptqdVCLLJyuYfl3smEAPD9sbuFFx9lj-T_2Zu4xb-lAJTQ,.,,,,,,"<div class=""container"" style=""position: absolute; left: 50%; top: 50%; transform: translate(-50%, -50%); width: 1075.1999999999998px; height: 510.99999999999994px;""><div id=""black-distractor-element""  class=""box"" style=""position: absolute; left: 183.03999999999996px; top: 4.428571428571421px; width: 40px; height: 80px; background-color: black;""></div><div id=""white-distractor-element""  class=""box"" style=""position: absolute; left: 406.0799999999999px; top: 4.428571428571421px; width: 40px; height: 80px; background-color: white; transform: rotate(90deg); transform-origin: center;""></div><div id=""target"" class=""box"" style=""position: absolute; left: 629.1199999999999px; top: 4.428571428571421px; width: 40px; height: 80px; background-color: white;""></div><div id=""white-distractor-element""  class=""box"" style=""position: absolute; left: 852.1599999999999px; top: 4.428571428571421px; width: 40px; height: 80px; background-color: white; transform: rotate(90deg); transform-origin: center;""></div><div id=""white-distractor-element""  class=""box"" style=""position: absolute; left: 183.03999999999996px; top: 88.85714285714285px; width: 40px; height: 80px; background-color: white; transform: rotate(90deg); transform-origin: center;""></div><div id=""white-distractor-element""  class=""box"" style=""position: absolute; left: 406.0799999999999px; top: 88.85714285714285px; width: 40px; height: 80px; background-color: white; transform: rotate(90deg); transform-origin: center;""></div><div id=""black-distractor-element""  class=""box"" style=""position: absolute; left: 629.1199999999999px; top: 88.85714285714285px; width: 40px; height: 80px; background-color: black;""></div><div id=""white-distractor-element""  class=""box"" style=""position: absolute; left: 852.1599999999999px; top: 88.85714285714285px; width: 40px; height: 80px; background-color: white; transform: rotate(90deg); transform-origin: center;""></div><div id=""white-distractor-element""  class=""box"" style=""position: absolute; left: 183.03999999999996px; top: 173.28571428571428px; width: 40px; height: 80px; background-color: white; transform: rotate(90deg); transform-origin: center;""></div><div id=""black-distractor-element""  class=""box"" style=""position: absolute; left: 406.0799999999999px; top: 173.28571428571428px; width: 40px; height: 80px; background-color: black;""></div><div id=""white-distractor-element""  class=""box"" style=""position: absolute; left: 629.1199999999999px; top: 173.28571428571428px; width: 40px; height: 80px; background-color: white; transform: rotate(90deg); transform-origin: center;""></div><div id=""white-distractor-element""  class=""box"" style=""position: absolute; left: 852.1599999999999px; top: 173.28571428571428px; width: 40px; height: 80px; background-color: white; transform: rotate(90deg); transform-origin: center;""></div><div id=""white-distractor-element""  class=""box"" style=""position: absolute; left: 183.03999999999996px; top: 257.71428571428567px; width: 40px; height: 80px; background-color: white; transform: rotate(90deg); transform-origin: center;""></div><div id=""black-distractor-element""  class=""box"" style=""position: absolute; left: 406.0799999999999px; top: 257.71428571428567px; width: 40px; height: 80px; background-color: black;""></div><div id=""black-distractor-element""  class=""box"" style=""position: absolute; left: 629.1199999999999px; top: 257.71428571428567px; width: 40px; height: 80px; background-color: black;""></div><div id=""black-distractor-element""  class=""box"" style=""position: absolute; left: 852.1599999999999px; top: 257.71428571428567px; width: 40px; height: 80px; background-color: black;""></div><div id=""black-distractor-element""  class=""box"" style=""position: absolute; left: 183.03999999999996px; top: 342.1428571428571px; width: 40px; height: 80px; background-color: black;""></div><div id=""white-distractor-element""  class=""box"" style=""position: absolute; left: 406.0799999999999px; top: 342.1428571428571px; width: 40px; height: 80px; background-color: white; transform: rotate(90deg); transform-origin: center;""></div><div id=""white-distractor-element""  class=""box"" style=""position: absolute; left: 629.1199999999999px; top: 342.1428571428571px; width: 40px; height: 80px; background-color: white; transform: rotate(90deg); transform-origin: center;""></div><div id=""white-distractor-element""  class=""box"" style=""position: absolute; left: 852.1599999999999px; top: 342.1428571428571px; width: 40px; height: 80px; background-color: white; transform: rotate(90deg); transform-origin: center;""></div><div id=""white-distractor-element""  class=""box"" style=""position: absolute; left: 183.03999999999996px; top: 426.57142857142856px; width: 40px; height: 80px; background-color: white; transform: rotate(90deg); transform-origin: center;""></div><div id=""white-distractor-element""  class=""box"" style=""position: absolute; left: 406.0799999999999px; top: 426.57142857142856px; width: 40px; height: 80px; background-color: white; transform: rotate(90deg); transform-origin: center;""></div><div id=""black-distractor-element""  class=""box"" style=""position: absolute; left: 629.1199999999999px; top: 426.57142857142856px; width: 40px; height: 80px; background-color: black;""></div><div id=""black-distractor-element""  class=""box"" style=""position: absolute; left: 852.1599999999999px; top: 426.57142857142856px; width: 40px; height: 80px; background-color: black;""></div></div>",,,,,,,,vs,True,practice_trial,2000.0,practice,0.0,1500.0,"[""."","",""]",1.0,24.0,.,1.0,"[""black vertical"",""white horizontal"",""white vertical"",""white horizontal"",""white horizontal"",""white horizontal"",""black vertical"",""white horizontal"",""white horizontal"",""black vertical"",""white horizontal"",""white horizontal"",""white horizontal"",""black vertical"",""black vertical"",""black vertical"",""black vertical"",""white horizontal"",""white horizontal"",""white horizontal"",""white horizontal"",""white horizontal"",""black vertical"",""black vertical""]",2.0,,,,,,,,,,
,,html-keyboard-response,61,166511,21,1,IwAR2HSDgqeI167ptqdVCLLJyuYfl3smEAPD9sbuFFx9lj-T_2Zu4xb-lAJTQ,,,,,,,<div class=center-box><p class=center-text>Correct!</div></div>,,,,,,,,,,practice_feedback,500.0,practice,0.0,500.0,,,,,,,,,,,,,,,,,
,,html-keyboard-response,62,166995,21,1,IwAR2HSDgqeI167ptqdVCLLJyuYfl3smEAPD9sbuFFx9lj-T_2Zu4xb-lAJTQ,,,,,,,<div class = centerbox><div class = fixation>+</div></div>,,,,,,,,,,practice_ITI,466.1568829968382,practice,0.0,466.1568829968382,,,,,,,,"{""min"":0,""max"":5,""mean"":0.5}",,,,,,,,,
,,html-keyboard-response,63,167513,21,1,IwAR2HSDgqeI167ptqdVCLLJyuYfl3smEAPD9sbuFFx9lj-T_2Zu4xb-lAJTQ,,,,,,,"<div class=""centerbox""><div class=""fixation"">+</div></div>",,,,,,,,,,practice_fixation,500.0,practice,0.0,500.0,,,,,,,,,,,,,,,,,
,641.0,html-keyboard-response,64,169525,21,conjunction,IwAR2HSDgqeI167ptqdVCLLJyuYfl3smEAPD9sbuFFx9lj-T_2Zu4xb-lAJTQ,.,,,,,,"<div class=""container"" style=""position: absolute; left: 50%; top: 50%; transform: translate(-50%, -50%); width: 1075.1999999999998px; height: 510.99999999999994px;""><div id=""black-distractor-element""  class=""box"" style=""position: absolute; left: 331.7333333333333px; top: 38.19999999999999px; width: 40px; height: 80px; background-color: black;""></div><div id=""black-distractor-element""  class=""box"" style=""position: absolute; left: 703.4666666666666px; top: 38.19999999999999px; width: 40px; height: 80px; background-color: black;""></div><div id=""white-distractor-element""  class=""box"" style=""position: absolute; left: 331.7333333333333px; top: 156.39999999999998px; width: 40px; height: 80px; background-color: white; transform: rotate(90deg); transform-origin: center;""></div><div id=""white-distractor-element""  class=""box"" style=""position: absolute; left: 703.4666666666666px; top: 156.39999999999998px; width: 40px; height: 80px; background-color: white; transform: rotate(90deg); transform-origin: center;""></div><div id=""target"" class=""box"" style=""position: absolute; left: 331.7333333333333px; top: 274.59999999999997px; width: 40px; height: 80px; background-color: white;""></div><div id=""black-distractor-element""  class=""box"" style=""position: absolute; left: 703.4666666666666px; top: 274.59999999999997px; width: 40px; height: 80px; background-color: black;""></div><div id=""white-distractor-element""  class=""box"" style=""position: absolute; left: 331.7333333333333px; top: 392.79999999999995px; width: 40px; height: 80px; background-color: white; transform: rotate(90deg); transform-origin: center;""></div><div id=""white-distractor-element""  class=""box"" style=""position: absolute; left: 703.4666666666666px; top: 392.79999999999995px; width: 40px; height: 80px; background-color: white; transform: rotate(90deg); transform-origin: center;""></div></div>",,,,,,,,vs,True,practice_trial,2000.0,practice,0.0,1500.0,"[""."","",""]",1.0,8.0,.,1.0,"[""black vertical"",""black vertical"",""white horizontal"",""white horizontal"",""white vertical"",""black vertical"",""white horizontal"",""white horizontal""]",4.0,,,,,,,,,,
,,html-keyboard-response,65,170038,21,1,IwAR2HSDgqeI167ptqdVCLLJyuYfl3smEAPD9sbuFFx9lj-T_2Zu4xb-lAJTQ,,,,,,,<div class=center-box><p class=center-text>Correct!</div></div>,,,,,,,,,,practice_feedback,500.0,practice,0.0,500.0,,,,,,,,,,,,,,,,,
,,html-keyboard-response,66,170273,21,1,IwAR2HSDgqeI167ptqdVCLLJyuYfl3smEAPD9sbuFFx9lj-T_2Zu4xb-lAJTQ,,,,,,,<div class = centerbox><div class = fixation>+</div></div>,,,,,,,,,,practice_ITI,221.2557553388144,practice,0.0,221.2557553388144,,,,,,,,"{""min"":0,""max"":5,""mean"":0.5}",,,,,,,,,
,,html-keyboard-response,67,170788,21,1,IwAR2HSDgqeI167ptqdVCLLJyuYfl3smEAPD9sbuFFx9lj-T_2Zu4xb-lAJTQ,,,,,,,"<div class=""centerbox""><div class=""fixation"">+</div></div>",,,,,,,,,,practice_fixation,500.0,practice,0.0,500.0,,,,,,,,,,,,,,,,,
,918.0,html-keyboard-response,68,172796,21,conjunction,IwAR2HSDgqeI167ptqdVCLLJyuYfl3smEAPD9sbuFFx9lj-T_2Zu4xb-lAJTQ,.,,,,,,"<div class=""container"" style=""position: absolute; left: 50%; top: 50%; transform: translate(-50%, -50%); width: 1075.1999999999998px; height: 510.99999999999994px;""><div id=""white-distractor-element""  class=""box"" style=""position: absolute; left: 183.03999999999996px; top: 4.428571428571421px; width: 40px; height: 80px; background-color: white; transform: rotate(90deg); transform-origin: center;""></div><div id=""black-distractor-element""  class=""box"" style=""position: absolute; left: 406.0799999999999px; top: 4.428571428571421px; width: 40px; height: 80px; background-color: black;""></div><div id=""white-distractor-element""  class=""box"" style=""position: absolute; left: 629.1199999999999px; top: 4.428571428571421px; width: 40px; height: 80px; background-color: white; transform: rotate(90deg); transform-origin: center;""></div><div id=""white-distractor-element""  class=""box"" style=""position: absolute; left: 852.1599999999999px; top: 4.428571428571421px; width: 40px; height: 80px; background-color: white; transform: rotate(90deg); transform-origin: center;""></div><div id=""black-distractor-element""  class=""box"" style=""position: absolute; left: 183.03999999999996px; top: 88.85714285714285px; width: 40px; height: 80px; background-color: black;""></div><div id=""black-distractor-element""  class=""box"" style=""position: absolute; left: 406.0799999999999px; top: 88.85714285714285px; width: 40px; height: 80px; background-color: black;""></div><div id=""black-distractor-element""  class=""box"" style=""position: absolute; left: 629.1199999999999px; top: 88.85714285714285px; width: 40px; height: 80px; background-color: black;""></div><div id=""white-distractor-element""  class=""box"" style=""position: absolute; left: 852.1599999999999px; top: 88.85714285714285px; width: 40px; height: 80px; background-color: white; transform: rotate(90deg); transform-origin: center;""></div><div id=""black-distractor-element""  class=""box"" style=""position: absolute; left: 183.03999999999996px; top: 173.28571428571428px; width: 40px; height: 80px; background-color: black;""></div><div id=""white-distractor-element""  class=""box"" style=""position: absolute; left: 406.0799999999999px; top: 173.28571428571428px; width: 40px; height: 80px; background-color: white; transform: rotate(90deg); transform-origin: center;""></div><div id=""black-distractor-element""  class=""box"" style=""position: absolute; left: 629.1199999999999px; top: 173.28571428571428px; width: 40px; height: 80px; background-color: black;""></div><div id=""black-distractor-element""  class=""box"" style=""position: absolute; left: 852.1599999999999px; top: 173.28571428571428px; width: 40px; height: 80px; background-color: black;""></div><div id=""target"" class=""box"" style=""position: absolute; left: 183.03999999999996px; top: 257.71428571428567px; width: 40px; height: 80px; background-color: white;""></div><div id=""black-distractor-element""  class=""box"" style=""position: absolute; left: 406.0799999999999px; top: 257.71428571428567px; width: 40px; height: 80px; background-color: black;""></div><div id=""black-distractor-element""  class=""box"" style=""position: absolute; left: 629.1199999999999px; top: 257.71428571428567px; width: 40px; height: 80px; background-color: black;""></div><div id=""white-distractor-element""  class=""box"" style=""position: absolute; left: 852.1599999999999px; top: 257.71428571428567px; width: 40px; height: 80px; background-color: white; transform: rotate(90deg); transform-origin: center;""></div><div id=""white-distractor-element""  class=""box"" style=""position: absolute; left: 183.03999999999996px; top: 342.1428571428571px; width: 40px; height: 80px; background-color: white; transform: rotate(90deg); transform-origin: center;""></div><div id=""black-distractor-element""  class=""box"" style=""position: absolute; left: 406.0799999999999px; top: 342.1428571428571px; width: 40px; height: 80px; background-color: black;""></div><div id=""black-distractor-element""  class=""box"" style=""position: absolute; left: 629.1199999999999px; top: 342.1428571428571px; width: 40px; height: 80px; background-color: black;""></div><div id=""white-distractor-element""  class=""box"" style=""position: absolute; left: 852.1599999999999px; top: 342.1428571428571px; width: 40px; height: 80px; background-color: white; transform: rotate(90deg); transform-origin: center;""></div><div id=""black-distractor-element""  class=""box"" style=""position: absolute; left: 183.03999999999996px; top: 426.57142857142856px; width: 40px; height: 80px; background-color: black;""></div><div id=""white-distractor-element""  class=""box"" style=""position: absolute; left: 406.0799999999999px; top: 426.57142857142856px; width: 40px; height: 80px; background-color: white; transform: rotate(90deg); transform-origin: center;""></div><div id=""white-distractor-element""  class=""box"" style=""position: absolute; left: 629.1199999999999px; top: 426.57142857142856px; width: 40px; height: 80px; background-color: white; transform: rotate(90deg); transform-origin: center;""></div><div id=""white-distractor-element""  class=""box"" style=""position: absolute; left: 852.1599999999999px; top: 426.57142857142856px; width: 40px; height: 80px; background-color: white; transform: rotate(90deg); transform-origin: center;""></div></div>",,,,,,,,vs,True,practice_trial,2000.0,practice,0.0,1500.0,"[""."","",""]",1.0,24.0,.,1.0,"[""white horizontal"",""black vertical"",""white horizontal"",""white horizontal"",""black vertical"",""black vertical"",""black vertical"",""white horizontal"",""black vertical"",""white horizontal"",""black vertical"",""black vertical"",""white vertical"",""black vertical"",""black vertical"",""white horizontal"",""white horizontal"",""black vertical"",""black vertical"",""white horizontal"",""black vertical"",""white horizontal"",""white horizontal"",""white horizontal""]",12.0,,,,,,,,,,
,,html-keyboard-response,69,173316,21,1,IwAR2HSDgqeI167ptqdVCLLJyuYfl3smEAPD9sbuFFx9lj-T_2Zu4xb-lAJTQ,,,,,,,<div class=center-box><p class=center-text>Correct!</div></div>,,,,,,,,,,practice_feedback,500.0,practice,0.0,500.0,,,,,,,,,,,,,,,,,
,,html-keyboard-response,70,173550,21,1,IwAR2HSDgqeI167ptqdVCLLJyuYfl3smEAPD9sbuFFx9lj-T_2Zu4xb-lAJTQ,,,,,,,<div class = centerbox><div class = fixation>+</div></div>,,,,,,,,,,practice_ITI,226.5093595412543,practice,0.0,226.5093595412543,,,,,,,,"{""min"":0,""max"":5,""mean"":0.5}",,,,,,,,,
,,html-keyboard-response,71,174065,21,1,IwAR2HSDgqeI167ptqdVCLLJyuYfl3smEAPD9sbuFFx9lj-T_2Zu4xb-lAJTQ,,,,,,,"<div class=""centerbox""><div class=""fixation"">+</div></div>",,,,,,,,,,practice_fixation,500.0,practice,0.0,500.0,,,,,,,,,,,,,,,,,
,599.0,html-keyboard-response,72,176082,21,conjunction,IwAR2HSDgqeI167ptqdVCLLJyuYfl3smEAPD9sbuFFx9lj-T_2Zu4xb-lAJTQ,.,,,,,,"<div class=""container"" style=""position: absolute; left: 50%; top: 50%; transform: translate(-50%, -50%); width: 1075.1999999999998px; height: 510.99999999999994px;""><div id=""target"" class=""box"" style=""position: absolute; left: 183.03999999999996px; top: 4.428571428571421px; width: 40px; height: 80px; background-color: white;""></div><div id=""white-distractor-element""  class=""box"" style=""position: absolute; left: 406.0799999999999px; top: 4.428571428571421px; width: 40px; height: 80px; background-color: white; transform: rotate(90deg); transform-origin: center;""></div><div id=""black-distractor-element""  class=""box"" style=""position: absolute; left: 629.1199999999999px; top: 4.428571428571421px; width: 40px; height: 80px; background-color: black;""></div><div id=""white-distractor-element""  class=""box"" style=""position: absolute; left: 852.1599999999999px; top: 4.428571428571421px; width: 40px; height: 80px; background-color: white; transform: rotate(90deg); transform-origin: center;""></div><div id=""black-distractor-element""  class=""box"" style=""position: absolute; left: 183.03999999999996px; top: 88.85714285714285px; width: 40px; height: 80px; background-color: black;""></div><div id=""black-distractor-element""  class=""box"" style=""position: absolute; left: 406.0799999999999px; top: 88.85714285714285px; width: 40px; height: 80px; background-color: black;""></div><div id=""black-distractor-element""  class=""box"" style=""position: absolute; left: 629.1199999999999px; top: 88.85714285714285px; width: 40px; height: 80px; background-color: black;""></div><div id=""white-distractor-element""  class=""box"" style=""position: absolute; left: 852.1599999999999px; top: 88.85714285714285px; width: 40px; height: 80px; background-color: white; transform: rotate(90deg); transform-origin: center;""></div><div id=""black-distractor-element""  class=""box"" style=""position: absolute; left: 183.03999999999996px; top: 173.28571428571428px; width: 40px; height: 80px; background-color: black;""></div><div id=""black-distractor-element""  class=""box"" style=""position: absolute; left: 406.0799999999999px; top: 173.28571428571428px; width: 40px; height: 80px; background-color: black;""></div><div id=""white-distractor-element""  class=""box"" style=""position: absolute; left: 629.1199999999999px; top: 173.28571428571428px; width: 40px; height: 80px; background-color: white; transform: rotate(90deg); transform-origin: center;""></div><div id=""black-distractor-element""  class=""box"" style=""position: absolute; left: 852.1599999999999px; top: 173.28571428571428px; width: 40px; height: 80px; background-color: black;""></div><div id=""white-distractor-element""  class=""box"" style=""position: absolute; left: 183.03999999999996px; top: 257.71428571428567px; width: 40px; height: 80px; background-color: white; transform: rotate(90deg); transform-origin: center;""></div><div id=""black-distractor-element""  class=""box"" style=""position: absolute; left: 406.0799999999999px; top: 257.71428571428567px; width: 40px; height: 80px; background-color: black;""></div><div id=""black-distractor-element""  class=""box"" style=""position: absolute; left: 629.1199999999999px; top: 257.71428571428567px; width: 40px; height: 80px; background-color: black;""></div><div id=""white-distractor-element""  class=""box"" style=""position: absolute; left: 852.1599999999999px; top: 257.71428571428567px; width: 40px; height: 80px; background-color: white; transform: rotate(90deg); transform-origin: center;""></div><div id=""white-distractor-element""  class=""box"" style=""position: absolute; left: 183.03999999999996px; top: 342.1428571428571px; width: 40px; height: 80px; background-color: white; transform: rotate(90deg); transform-origin: center;""></div><div id=""black-distractor-element""  class=""box"" style=""position: absolute; left: 406.0799999999999px; top: 342.1428571428571px; width: 40px; height: 80px; background-color: black;""></div><div id=""black-distractor-element""  class=""box"" style=""position: absolute; left: 629.1199999999999px; top: 342.1428571428571px; width: 40px; height: 80px; background-color: black;""></div><div id=""white-distractor-element""  class=""box"" style=""position: absolute; left: 852.1599999999999px; top: 342.1428571428571px; width: 40px; height: 80px; background-color: white; transform: rotate(90deg); transform-origin: center;""></div><div id=""black-distractor-element""  class=""box"" style=""position: absolute; left: 183.03999999999996px; top: 426.57142857142856px; width: 40px; height: 80px; background-color: black;""></div><div id=""black-distractor-element""  class=""box"" style=""position: absolute; left: 406.0799999999999px; top: 426.57142857142856px; width: 40px; height: 80px; background-color: black;""></div><div id=""white-distractor-element""  class=""box"" style=""position: absolute; left: 629.1199999999999px; top: 426.57142857142856px; width: 40px; height: 80px; background-color: white; transform: rotate(90deg); transform-origin: center;""></div><div id=""black-distractor-element""  class=""box"" style=""position: absolute; left: 852.1599999999999px; top: 426.57142857142856px; width: 40px; height: 80px; background-color: black;""></div></div>",,,,,,,,vs,True,practice_trial,2000.0,practice,0.0,1500.0,"[""."","",""]",1.0,24.0,.,1.0,"[""white vertical"",""white horizontal"",""black vertical"",""white horizontal"",""black vertical"",""black vertical"",""black vertical"",""white horizontal"",""black vertical"",""black vertical"",""white horizontal"",""black vertical"",""white horizontal"",""black vertical"",""black vertical"",""white horizontal"",""white horizontal"",""black vertical"",""black vertical"",""white horizontal"",""black vertical"",""black vertical"",""white horizontal"",""black vertical""]",0.0,,,,,,,,,,
,,html-keyboard-response,73,176601,21,1,IwAR2HSDgqeI167ptqdVCLLJyuYfl3smEAPD9sbuFFx9lj-T_2Zu4xb-lAJTQ,,,,,,,<div class=center-box><p class=center-text>Correct!</div></div>,,,,,,,,,,practice_feedback,500.0,practice,0.0,500.0,,,,,,,,,,,,,,,,,
,,html-keyboard-response,74,177012,21,1,IwAR2HSDgqeI167ptqdVCLLJyuYfl3smEAPD9sbuFFx9lj-T_2Zu4xb-lAJTQ,,,,,,,<div class = centerbox><div class = fixation>+</div></div>,,,,,,,,,,practice_ITI,400.7290895969639,practice,0.0,400.7290895969639,,,,,,,,"{""min"":0,""max"":5,""mean"":0.5}",,,,,,,,,
,,html-keyboard-response,75,177515,21,1,IwAR2HSDgqeI167ptqdVCLLJyuYfl3smEAPD9sbuFFx9lj-T_2Zu4xb-lAJTQ,,,,,,,"<div class=""centerbox""><div class=""fixation"">+</div></div>",,,,,,,,,,practice_fixation,500.0,practice,0.0,500.0,,,,,,,,,,,,,,,,,
,950.0,html-keyboard-response,76,179522,21,conjunction,IwAR2HSDgqeI167ptqdVCLLJyuYfl3smEAPD9sbuFFx9lj-T_2Zu4xb-lAJTQ,",",,,,,,"<div class=""container"" style=""position: absolute; left: 50%; top: 50%; transform: translate(-50%, -50%); width: 1075.1999999999998px; height: 510.99999999999994px;""><div id=""black-distractor-element""  class=""box"" style=""position: absolute; left: 183.03999999999996px; top: 4.428571428571421px; width: 40px; height: 80px; background-color: black;""></div><div id=""black-distractor-element""  class=""box"" style=""position: absolute; left: 406.0799999999999px; top: 4.428571428571421px; width: 40px; height: 80px; background-color: black;""></div><div id=""white-distractor-element""  class=""box"" style=""position: absolute; left: 629.1199999999999px; top: 4.428571428571421px; width: 40px; height: 80px; background-color: white; transform: rotate(90deg); transform-origin: center;""></div><div id=""black-distractor-element""  class=""box"" style=""position: absolute; left: 852.1599999999999px; top: 4.428571428571421px; width: 40px; height: 80px; background-color: black;""></div><div id=""black-distractor-element""  class=""box"" style=""position: absolute; left: 183.03999999999996px; top: 88.85714285714285px; width: 40px; height: 80px; background-color: black;""></div><div id=""white-distractor-element""  class=""box"" style=""position: absolute; left: 406.0799999999999px; top: 88.85714285714285px; width: 40px; height: 80px; background-color: white; transform: rotate(90deg); transform-origin: center;""></div><div id=""white-distractor-element""  class=""box"" style=""position: absolute; left: 629.1199999999999px; top: 88.85714285714285px; width: 40px; height: 80px; background-color: white; transform: rotate(90deg); transform-origin: center;""></div><div id=""black-distractor-element""  class=""box"" style=""position: absolute; left: 852.1599999999999px; top: 88.85714285714285px; width: 40px; height: 80px; background-color: black;""></div><div id=""white-distractor-element""  class=""box"" style=""position: absolute; left: 183.03999999999996px; top: 173.28571428571428px; width: 40px; height: 80px; background-color: white; transform: rotate(90deg); transform-origin: center;""></div><div id=""black-distractor-element""  class=""box"" style=""position: absolute; left: 406.0799999999999px; top: 173.28571428571428px; width: 40px; height: 80px; background-color: black;""></div><div id=""white-distractor-element""  class=""box"" style=""position: absolute; left: 629.1199999999999px; top: 173.28571428571428px; width: 40px; height: 80px; background-color: white; transform: rotate(90deg); transform-origin: center;""></div><div id=""white-distractor-element""  class=""box"" style=""position: absolute; left: 852.1599999999999px; top: 173.28571428571428px; width: 40px; height: 80px; background-color: white; transform: rotate(90deg); transform-origin: center;""></div><div id=""white-distractor-element""  class=""box"" style=""position: absolute; left: 183.03999999999996px; top: 257.71428571428567px; width: 40px; height: 80px; background-color: white; transform: rotate(90deg); transform-origin: center;""></div><div id=""black-distractor-element""  class=""box"" style=""position: absolute; left: 406.0799999999999px; top: 257.71428571428567px; width: 40px; height: 80px; background-color: black;""></div><div id=""black-distractor-element""  class=""box"" style=""position: absolute; left: 629.1199999999999px; top: 257.71428571428567px; width: 40px; height: 80px; background-color: black;""></div><div id=""white-distractor-element""  class=""box"" style=""position: absolute; left: 852.1599999999999px; top: 257.71428571428567px; width: 40px; height: 80px; background-color: white; transform: rotate(90deg); transform-origin: center;""></div><div id=""black-distractor-element""  class=""box"" style=""position: absolute; left: 183.03999999999996px; top: 342.1428571428571px; width: 40px; height: 80px; background-color: black;""></div><div id=""black-distractor-element""  class=""box"" style=""position: absolute; left: 406.0799999999999px; top: 342.1428571428571px; width: 40px; height: 80px; background-color: black;""></div><div id=""white-distractor-element""  class=""box"" style=""position: absolute; left: 629.1199999999999px; top: 342.1428571428571px; width: 40px; height: 80px; background-color: white; transform: rotate(90deg); transform-origin: center;""></div><div id=""white-distractor-element""  class=""box"" style=""position: absolute; left: 852.1599999999999px; top: 342.1428571428571px; width: 40px; height: 80px; background-color: white; transform: rotate(90deg); transform-origin: center;""></div><div id=""white-distractor-element""  class=""box"" style=""position: absolute; left: 183.03999999999996px; top: 426.57142857142856px; width: 40px; height: 80px; background-color: white; transform: rotate(90deg); transform-origin: center;""></div><div id=""white-distractor-element""  class=""box"" style=""position: absolute; left: 406.0799999999999px; top: 426.57142857142856px; width: 40px; height: 80px; background-color: white; transform: rotate(90deg); transform-origin: center;""></div><div id=""white-distractor-element""  class=""box"" style=""position: absolute; left: 629.1199999999999px; top: 426.57142857142856px; width: 40px; height: 80px; background-color: white; transform: rotate(90deg); transform-origin: center;""></div><div id=""white-distractor-element""  class=""box"" style=""position: absolute; left: 852.1599999999999px; top: 426.57142857142856px; width: 40px; height: 80px; background-color: white; transform: rotate(90deg); transform-origin: center;""></div></div>",,,,,,,,vs,True,practice_trial,2000.0,practice,0.0,1500.0,"[""."","",""]",0.0,24.0,",",1.0,"[""black vertical"",""black vertical"",""white horizontal"",""black vertical"",""black vertical"",""white horizontal"",""white horizontal"",""black vertical"",""white horizontal"",""black vertical"",""white horizontal"",""white horizontal"",""white horizontal"",""black vertical"",""black vertical"",""white horizontal"",""black vertical"",""black vertical"",""white horizontal"",""white horizontal"",""white horizontal"",""white horizontal"",""white horizontal"",""white horizontal""]",,,,,,,,,,,
,,html-keyboard-response,77,180040,21,1,IwAR2HSDgqeI167ptqdVCLLJyuYfl3smEAPD9sbuFFx9lj-T_2Zu4xb-lAJTQ,,,,,,,<div class=center-box><p class=center-text>Correct!</div></div>,,,,,,,,,,practice_feedback,500.0,practice,0.0,500.0,,,,,,,,,,,,,,,,,
,,html-keyboard-response,78,181292,21,1,IwAR2HSDgqeI167ptqdVCLLJyuYfl3smEAPD9sbuFFx9lj-T_2Zu4xb-lAJTQ,,,,,,,<div class = centerbox><div class = fixation>+</div></div>,,,,,,,,,,practice_ITI,1236.628100037693,practice,0.0,1236.628100037693,,,,,,,,"{""min"":0,""max"":5,""mean"":0.5}",,,,,,,,,
,,html-keyboard-response,79,181807,21,1,IwAR2HSDgqeI167ptqdVCLLJyuYfl3smEAPD9sbuFFx9lj-T_2Zu4xb-lAJTQ,,,,,,,"<div class=""centerbox""><div class=""fixation"">+</div></div>",,,,,,,,,,practice_fixation,500.0,practice,0.0,500.0,,,,,,,,,,,,,,,,,
,692.0,html-keyboard-response,80,183827,21,conjunction,IwAR2HSDgqeI167ptqdVCLLJyuYfl3smEAPD9sbuFFx9lj-T_2Zu4xb-lAJTQ,",",,,,,,"<div class=""container"" style=""position: absolute; left: 50%; top: 50%; transform: translate(-50%, -50%); width: 1075.1999999999998px; height: 510.99999999999994px;""><div id=""white-distractor-element""  class=""box"" style=""position: absolute; left: 331.7333333333333px; top: 38.19999999999999px; width: 40px; height: 80px; background-color: white; transform: rotate(90deg); transform-origin: center;""></div><div id=""white-distractor-element""  class=""box"" style=""position: absolute; left: 703.4666666666666px; top: 38.19999999999999px; width: 40px; height: 80px; background-color: white; transform: rotate(90deg); transform-origin: center;""></div><div id=""black-distractor-element""  class=""box"" style=""position: absolute; left: 331.7333333333333px; top: 156.39999999999998px; width: 40px; height: 80px; background-color: black;""></div><div id=""white-distractor-element""  class=""box"" style=""position: absolute; left: 703.4666666666666px; top: 156.39999999999998px; width: 40px; height: 80px; background-color: white; transform: rotate(90deg); transform-origin: center;""></div><div id=""black-distractor-element""  class=""box"" style=""position: absolute; left: 331.7333333333333px; top: 274.59999999999997px; width: 40px; height: 80px; background-color: black;""></div><div id=""white-distractor-element""  class=""box"" style=""position: absolute; left: 703.4666666666666px; top: 274.59999999999997px; width: 40px; height: 80px; background-color: white; transform: rotate(90deg); transform-origin: center;""></div><div id=""black-distractor-element""  class=""box"" style=""position: absolute; left: 331.7333333333333px; top: 392.79999999999995px; width: 40px; height: 80px; background-color: black;""></div><div id=""white-distractor-element""  class=""box"" style=""position: absolute; left: 703.4666666666666px; top: 392.79999999999995px; width: 40px; height: 80px; background-color: white; transform: rotate(90deg); transform-origin: center;""></div></div>",,,,,,,,vs,True,practice_trial,2000.0,practice,0.0,1500.0,"[""."","",""]",0.0,8.0,",",1.0,"[""white horizontal"",""white horizontal"",""black vertical"",""white horizontal"",""black vertical"",""white horizontal"",""black vertical"",""white horizontal""]",,,,,,,,,,,
,,html-keyboard-response,81,184342,21,1,IwAR2HSDgqeI167ptqdVCLLJyuYfl3smEAPD9sbuFFx9lj-T_2Zu4xb-lAJTQ,,,,,,,<div class=center-box><p class=center-text>Correct!</div></div>,,,,,,,,,,practice_feedback,500.0,practice,0.0,500.0,,,,,,,,,,,,,,,,,
,,html-keyboard-response,82,185028,21,1,IwAR2HSDgqeI167ptqdVCLLJyuYfl3smEAPD9sbuFFx9lj-T_2Zu4xb-lAJTQ,,,,,,,<div class = centerbox><div class = fixation>+</div></div>,,,,,,,,,,practice_ITI,671.8231049655557,practice,0.0,671.8231049655557,,,,,,,,"{""min"":0,""max"":5,""mean"":0.5}",,,,,,,,,
,,html-keyboard-response,83,185545,21,1,IwAR2HSDgqeI167ptqdVCLLJyuYfl3smEAPD9sbuFFx9lj-T_2Zu4xb-lAJTQ,,,,,,,"<div class=""centerbox""><div class=""fixation"">+</div></div>",,,,,,,,,,practice_fixation,500.0,practice,0.0,500.0,,,,,,,,,,,,,,,,,
,675.0,html-keyboard-response,84,187557,21,conjunction,IwAR2HSDgqeI167ptqdVCLLJyuYfl3smEAPD9sbuFFx9lj-T_2Zu4xb-lAJTQ,.,,,,,,"<div class=""container"" style=""position: absolute; left: 50%; top: 50%; transform: translate(-50%, -50%); width: 1075.1999999999998px; height: 510.99999999999994px;""><div id=""black-distractor-element""  class=""box"" style=""position: absolute; left: 331.7333333333333px; top: 38.19999999999999px; width: 40px; height: 80px; background-color: black;""></div><div id=""white-distractor-element""  class=""box"" style=""position: absolute; left: 703.4666666666666px; top: 38.19999999999999px; width: 40px; height: 80px; background-color: white; transform: rotate(90deg); transform-origin: center;""></div><div id=""white-distractor-element""  class=""box"" style=""position: absolute; left: 331.7333333333333px; top: 156.39999999999998px; width: 40px; height: 80px; background-color: white; transform: rotate(90deg); transform-origin: center;""></div><div id=""black-distractor-element""  class=""box"" style=""position: absolute; left: 703.4666666666666px; top: 156.39999999999998px; width: 40px; height: 80px; background-color: black;""></div><div id=""white-distractor-element""  class=""box"" style=""position: absolute; left: 331.7333333333333px; top: 274.59999999999997px; width: 40px; height: 80px; background-color: white; transform: rotate(90deg); transform-origin: center;""></div><div id=""white-distractor-element""  class=""box"" style=""position: absolute; left: 703.4666666666666px; top: 274.59999999999997px; width: 40px; height: 80px; background-color: white; transform: rotate(90deg); transform-origin: center;""></div><div id=""black-distractor-element""  class=""box"" style=""position: absolute; left: 331.7333333333333px; top: 392.79999999999995px; width: 40px; height: 80px; background-color: black;""></div><div id=""target"" class=""box"" style=""position: absolute; left: 703.4666666666666px; top: 392.79999999999995px; width: 40px; height: 80px; background-color: white;""></div></div>",,,,,,,,vs,True,practice_trial,2000.0,practice,0.0,1500.0,"[""."","",""]",1.0,8.0,.,1.0,"[""black vertical"",""white horizontal"",""white horizontal"",""black vertical"",""white horizontal"",""white horizontal"",""black vertical"",""white vertical""]",7.0,,,,,,,,,,
,,html-keyboard-response,85,188075,21,1,IwAR2HSDgqeI167ptqdVCLLJyuYfl3smEAPD9sbuFFx9lj-T_2Zu4xb-lAJTQ,,,,,,,<div class=center-box><p class=center-text>Correct!</div></div>,,,,,,,,,,practice_feedback,500.0,practice,0.0,500.0,,,,,,,,,,,,,,,,,
,,html-keyboard-response,86,188940,21,1,IwAR2HSDgqeI167ptqdVCLLJyuYfl3smEAPD9sbuFFx9lj-T_2Zu4xb-lAJTQ,,,,,,,<div class = centerbox><div class = fixation>+</div></div>,,,,,,,,,,practice_ITI,847.7559013423464,practice,0.0,847.7559013423464,,,,,,,,"{""min"":0,""max"":5,""mean"":0.5}",,,,,,,,,
,,html-keyboard-response,87,189456,21,1,IwAR2HSDgqeI167ptqdVCLLJyuYfl3smEAPD9sbuFFx9lj-T_2Zu4xb-lAJTQ,,,,,,,"<div class=""centerbox""><div class=""fixation"">+</div></div>",,,,,,,,,,practice_fixation,500.0,practice,0.0,500.0,,,,,,,,,,,,,,,,,
,656.0,html-keyboard-response,88,191476,21,conjunction,IwAR2HSDgqeI167ptqdVCLLJyuYfl3smEAPD9sbuFFx9lj-T_2Zu4xb-lAJTQ,",",,,,,,"<div class=""container"" style=""position: absolute; left: 50%; top: 50%; transform: translate(-50%, -50%); width: 1075.1999999999998px; height: 510.99999999999994px;""><div id=""black-distractor-element""  class=""box"" style=""position: absolute; left: 183.03999999999996px; top: 4.428571428571421px; width: 40px; height: 80px; background-color: black;""></div><div id=""black-distractor-element""  class=""box"" style=""position: absolute; left: 406.0799999999999px; top: 4.428571428571421px; width: 40px; height: 80px; background-color: black;""></div><div id=""black-distractor-element""  class=""box"" style=""position: absolute; left: 629.1199999999999px; top: 4.428571428571421px; width: 40px; height: 80px; background-color: black;""></div><div id=""black-distractor-element""  class=""box"" style=""position: absolute; left: 852.1599999999999px; top: 4.428571428571421px; width: 40px; height: 80px; background-color: black;""></div><div id=""white-distractor-element""  class=""box"" style=""position: absolute; left: 183.03999999999996px; top: 88.85714285714285px; width: 40px; height: 80px; background-color: white; transform: rotate(90deg); transform-origin: center;""></div><div id=""black-distractor-element""  class=""box"" style=""position: absolute; left: 406.0799999999999px; top: 88.85714285714285px; width: 40px; height: 80px; background-color: black;""></div><div id=""white-distractor-element""  class=""box"" style=""position: absolute; left: 629.1199999999999px; top: 88.85714285714285px; width: 40px; height: 80px; background-color: white; transform: rotate(90deg); transform-origin: center;""></div><div id=""black-distractor-element""  class=""box"" style=""position: absolute; left: 852.1599999999999px; top: 88.85714285714285px; width: 40px; height: 80px; background-color: black;""></div><div id=""black-distractor-element""  class=""box"" style=""position: absolute; left: 183.03999999999996px; top: 173.28571428571428px; width: 40px; height: 80px; background-color: black;""></div><div id=""black-distractor-element""  class=""box"" style=""position: absolute; left: 406.0799999999999px; top: 173.28571428571428px; width: 40px; height: 80px; background-color: black;""></div><div id=""white-distractor-element""  class=""box"" style=""position: absolute; left: 629.1199999999999px; top: 173.28571428571428px; width: 40px; height: 80px; background-color: white; transform: rotate(90deg); transform-origin: center;""></div><div id=""target"" class=""box"" style=""position: absolute; left: 852.1599999999999px; top: 173.28571428571428px; width: 40px; height: 80px; background-color: white;""></div><div id=""white-distractor-element""  class=""box"" style=""position: absolute; left: 183.03999999999996px; top: 257.71428571428567px; width: 40px; height: 80px; background-color: white; transform: rotate(90deg); transform-origin: center;""></div><div id=""white-distractor-element""  class=""box"" style=""position: absolute; left: 406.0799999999999px; top: 257.71428571428567px; width: 40px; height: 80px; background-color: white; transform: rotate(90deg); transform-origin: center;""></div><div id=""white-distractor-element""  class=""box"" style=""position: absolute; left: 629.1199999999999px; top: 257.71428571428567px; width: 40px; height: 80px; background-color: white; transform: rotate(90deg); transform-origin: center;""></div><div id=""black-distractor-element""  class=""box"" style=""position: absolute; left: 852.1599999999999px; top: 257.71428571428567px; width: 40px; height: 80px; background-color: black;""></div><div id=""black-distractor-element""  class=""box"" style=""position: absolute; left: 183.03999999999996px; top: 342.1428571428571px; width: 40px; height: 80px; background-color: black;""></div><div id=""black-distractor-element""  class=""box"" style=""position: absolute; left: 406.0799999999999px; top: 342.1428571428571px; width: 40px; height: 80px; background-color: black;""></div><div id=""black-distractor-element""  class=""box"" style=""position: absolute; left: 629.1199999999999px; top: 342.1428571428571px; width: 40px; height: 80px; background-color: black;""></div><div id=""white-distractor-element""  class=""box"" style=""position: absolute; left: 852.1599999999999px; top: 342.1428571428571px; width: 40px; height: 80px; background-color: white; transform: rotate(90deg); transform-origin: center;""></div><div id=""black-distractor-element""  class=""box"" style=""position: absolute; left: 183.03999999999996px; top: 426.57142857142856px; width: 40px; height: 80px; background-color: black;""></div><div id=""white-distractor-element""  class=""box"" style=""position: absolute; left: 406.0799999999999px; top: 426.57142857142856px; width: 40px; height: 80px; background-color: white; transform: rotate(90deg); transform-origin: center;""></div><div id=""black-distractor-element""  class=""box"" style=""position: absolute; left: 629.1199999999999px; top: 426.57142857142856px; width: 40px; height: 80px; background-color: black;""></div><div id=""black-distractor-element""  class=""box"" style=""position: absolute; left: 852.1599999999999px; top: 426.57142857142856px; width: 40px; height: 80px; background-color: black;""></div></div>",,,,,,,,vs,True,practice_trial,2000.0,practice,0.0,1500.0,"[""."","",""]",1.0,24.0,.,0.0,"[""black vertical"",""black vertical"",""black vertical"",""black vertical"",""white horizontal"",""black vertical"",""white horizontal"",""black vertical"",""black vertical"",""black vertical"",""white horizontal"",""white vertical"",""white horizontal"",""white horizontal"",""white horizontal"",""black vertical"",""black vertical"",""black vertical"",""black vertical"",""white horizontal"",""black vertical"",""white horizontal"",""black vertical"",""black vertical""]",11.0,,,,,,,,,,
,,html-keyboard-response,89,191992,21,1,IwAR2HSDgqeI167ptqdVCLLJyuYfl3smEAPD9sbuFFx9lj-T_2Zu4xb-lAJTQ,,,,,,,<div class=center-box><p class=center-text>Incorrect!</div></div>,,,,,,,,,,practice_feedback,500.0,practice,0.0,500.0,,,,,,,,,,,,,,,,,
,,html-keyboard-response,90,192193,21,1,IwAR2HSDgqeI167ptqdVCLLJyuYfl3smEAPD9sbuFFx9lj-T_2Zu4xb-lAJTQ,,,,,,,<div class = centerbox><div class = fixation>+</div></div>,,,,,,,,,,practice_ITI,193.9579571916722,practice,0.0,193.9579571916722,,,,,,,,"{""min"":0,""max"":5,""mean"":0.5}",,,,,,,,,
,,html-keyboard-response,91,192710,21,1,IwAR2HSDgqeI167ptqdVCLLJyuYfl3smEAPD9sbuFFx9lj-T_2Zu4xb-lAJTQ,,,,,,,"<div class=""centerbox""><div class=""fixation"">+</div></div>",,,,,,,,,,practice_fixation,500.0,practice,0.0,500.0,,,,,,,,,,,,,,,,,
,753.0,html-keyboard-response,92,194726,21,conjunction,IwAR2HSDgqeI167ptqdVCLLJyuYfl3smEAPD9sbuFFx9lj-T_2Zu4xb-lAJTQ,",",,,,,,"<div class=""container"" style=""position: absolute; left: 50%; top: 50%; transform: translate(-50%, -50%); width: 1075.1999999999998px; height: 510.99999999999994px;""><div id=""white-distractor-element""  class=""box"" style=""position: absolute; left: 331.7333333333333px; top: 38.19999999999999px; width: 40px; height: 80px; background-color: white; transform: rotate(90deg); transform-origin: center;""></div><div id=""black-distractor-element""  class=""box"" style=""position: absolute; left: 703.4666666666666px; top: 38.19999999999999px; width: 40px; height: 80px; background-color: black;""></div><div id=""black-distractor-element""  class=""box"" style=""position: absolute; left: 331.7333333333333px; top: 156.39999999999998px; width: 40px; height: 80px; background-color: black;""></div><div id=""white-distractor-element""  class=""box"" style=""position: absolute; left: 703.4666666666666px; top: 156.39999999999998px; width: 40px; height: 80px; background-color: white; transform: rotate(90deg); transform-origin: center;""></div><div id=""white-distractor-element""  class=""box"" style=""position: absolute; left: 331.7333333333333px; top: 274.59999999999997px; width: 40px; height: 80px; background-color: white; transform: rotate(90deg); transform-origin: center;""></div><div id=""white-distractor-element""  class=""box"" style=""position: absolute; left: 703.4666666666666px; top: 274.59999999999997px; width: 40px; height: 80px; background-color: white; transform: rotate(90deg); transform-origin: center;""></div><div id=""white-distractor-element""  class=""box"" style=""position: absolute; left: 331.7333333333333px; top: 392.79999999999995px; width: 40px; height: 80px; background-color: white; transform: rotate(90deg); transform-origin: center;""></div><div id=""black-distractor-element""  class=""box"" style=""position: absolute; left: 703.4666666666666px; top: 392.79999999999995px; width: 40px; height: 80px; background-color: black;""></div></div>",,,,,,,,vs,True,practice_trial,2000.0,practice,0.0,1500.0,"[""."","",""]",0.0,8.0,",",1.0,"[""white horizontal"",""black vertical"",""black vertical"",""white horizontal"",""white horizontal"",""white horizontal"",""white horizontal"",""black vertical""]",,,,,,,,,,,
,,html-keyboard-response,93,195245,21,1,IwAR2HSDgqeI167ptqdVCLLJyuYfl3smEAPD9sbuFFx9lj-T_2Zu4xb-lAJTQ,,,,,,,<div class=center-box><p class=center-text>Correct!</div></div>,,,,,,,,,,practice_feedback,500.0,practice,0.0,500.0,,,,,,,,,,,,,,,,,
,,html-keyboard-response,94,195885,21,1,IwAR2HSDgqeI167ptqdVCLLJyuYfl3smEAPD9sbuFFx9lj-T_2Zu4xb-lAJTQ,,,,,,,<div class = centerbox><div class = fixation>+</div></div>,,,,,,,,,,practice_ITI,619.2917518005352,practice,0.0,619.2917518005352,,,,,,,,"{""min"":0,""max"":5,""mean"":0.5}",,,,,,,,,
,,html-keyboard-response,95,196401,21,1,IwAR2HSDgqeI167ptqdVCLLJyuYfl3smEAPD9sbuFFx9lj-T_2Zu4xb-lAJTQ,,,,,,,"<div class=""centerbox""><div class=""fixation"">+</div></div>",,,,,,,,,,practice_fixation,500.0,practice,0.0,500.0,,,,,,,,,,,,,,,,,
,810.0,html-keyboard-response,96,198423,21,conjunction,IwAR2HSDgqeI167ptqdVCLLJyuYfl3smEAPD9sbuFFx9lj-T_2Zu4xb-lAJTQ,",",,,,,,"<div class=""container"" style=""position: absolute; left: 50%; top: 50%; transform: translate(-50%, -50%); width: 1075.1999999999998px; height: 510.99999999999994px;""><div id=""white-distractor-element""  class=""box"" style=""position: absolute; left: 183.03999999999996px; top: 4.428571428571421px; width: 40px; height: 80px; background-color: white; transform: rotate(90deg); transform-origin: center;""></div><div id=""white-distractor-element""  class=""box"" style=""position: absolute; left: 406.0799999999999px; top: 4.428571428571421px; width: 40px; height: 80px; background-color: white; transform: rotate(90deg); transform-origin: center;""></div><div id=""black-distractor-element""  class=""box"" style=""position: absolute; left: 629.1199999999999px; top: 4.428571428571421px; width: 40px; height: 80px; background-color: black;""></div><div id=""black-distractor-element""  class=""box"" style=""position: absolute; left: 852.1599999999999px; top: 4.428571428571421px; width: 40px; height: 80px; background-color: black;""></div><div id=""white-distractor-element""  class=""box"" style=""position: absolute; left: 183.03999999999996px; top: 88.85714285714285px; width: 40px; height: 80px; background-color: white; transform: rotate(90deg); transform-origin: center;""></div><div id=""black-distractor-element""  class=""box"" style=""position: absolute; left: 406.0799999999999px; top: 88.85714285714285px; width: 40px; height: 80px; background-color: black;""></div><div id=""black-distractor-element""  class=""box"" style=""position: absolute; left: 629.1199999999999px; top: 88.85714285714285px; width: 40px; height: 80px; background-color: black;""></div><div id=""white-distractor-element""  class=""box"" style=""position: absolute; left: 852.1599999999999px; top: 88.85714285714285px; width: 40px; height: 80px; background-color: white; transform: rotate(90deg); transform-origin: center;""></div><div id=""white-distractor-element""  class=""box"" style=""position: absolute; left: 183.03999999999996px; top: 173.28571428571428px; width: 40px; height: 80px; background-color: white; transform: rotate(90deg); transform-origin: center;""></div><div id=""black-distractor-element""  class=""box"" style=""position: absolute; left: 406.0799999999999px; top: 173.28571428571428px; width: 40px; height: 80px; background-color: black;""></div><div id=""white-distractor-element""  class=""box"" style=""position: absolute; left: 629.1199999999999px; top: 173.28571428571428px; width: 40px; height: 80px; background-color: white; transform: rotate(90deg); transform-origin: center;""></div><div id=""white-distractor-element""  class=""box"" style=""position: absolute; left: 852.1599999999999px; top: 173.28571428571428px; width: 40px; height: 80px; background-color: white; transform: rotate(90deg); transform-origin: center;""></div><div id=""black-distractor-element""  class=""box"" style=""position: absolute; left: 183.03999999999996px; top: 257.71428571428567px; width: 40px; height: 80px; background-color: black;""></div><div id=""black-distractor-element""  class=""box"" style=""position: absolute; left: 406.0799999999999px; top: 257.71428571428567px; width: 40px; height: 80px; background-color: black;""></div><div id=""white-distractor-element""  class=""box"" style=""position: absolute; left: 629.1199999999999px; top: 257.71428571428567px; width: 40px; height: 80px; background-color: white; transform: rotate(90deg); transform-origin: center;""></div><div id=""white-distractor-element""  class=""box"" style=""position: absolute; left: 852.1599999999999px; top: 257.71428571428567px; width: 40px; height: 80px; background-color: white; transform: rotate(90deg); transform-origin: center;""></div><div id=""black-distractor-element""  class=""box"" style=""position: absolute; left: 183.03999999999996px; top: 342.1428571428571px; width: 40px; height: 80px; background-color: black;""></div><div id=""white-distractor-element""  class=""box"" style=""position: absolute; left: 406.0799999999999px; top: 342.1428571428571px; width: 40px; height: 80px; background-color: white; transform: rotate(90deg); transform-origin: center;""></div><div id=""black-distractor-element""  class=""box"" style=""position: absolute; left: 629.1199999999999px; top: 342.1428571428571px; width: 40px; height: 80px; background-color: black;""></div><div id=""white-distractor-element""  class=""box"" style=""position: absolute; left: 852.1599999999999px; top: 342.1428571428571px; width: 40px; height: 80px; background-color: white; transform: rotate(90deg); transform-origin: center;""></div><div id=""black-distractor-element""  class=""box"" style=""position: absolute; left: 183.03999999999996px; top: 426.57142857142856px; width: 40px; height: 80px; background-color: black;""></div><div id=""black-distractor-element""  class=""box"" style=""position: absolute; left: 406.0799999999999px; top: 426.57142857142856px; width: 40px; height: 80px; background-color: black;""></div><div id=""white-distractor-element""  class=""box"" style=""position: absolute; left: 629.1199999999999px; top: 426.57142857142856px; width: 40px; height: 80px; background-color: white; transform: rotate(90deg); transform-origin: center;""></div><div id=""black-distractor-element""  class=""box"" style=""position: absolute; left: 852.1599999999999px; top: 426.57142857142856px; width: 40px; height: 80px; background-color: black;""></div></div>",,,,,,,,vs,True,practice_trial,2000.0,practice,0.0,1500.0,"[""."","",""]",0.0,24.0,",",1.0,"[""white horizontal"",""white horizontal"",""black vertical"",""black vertical"",""white horizontal"",""black vertical"",""black vertical"",""white horizontal"",""white horizontal"",""black vertical"",""white horizontal"",""white horizontal"",""black vertical"",""black vertical"",""white horizontal"",""white horizontal"",""black vertical"",""white horizontal"",""black vertical"",""white horizontal"",""black vertical"",""black vertical"",""white horizontal"",""black vertical""]",,,,,,,,,,,
,,html-keyboard-response,97,198938,21,1,IwAR2HSDgqeI167ptqdVCLLJyuYfl3smEAPD9sbuFFx9lj-T_2Zu4xb-lAJTQ,,,,,,,<div class=center-box><p class=center-text>Correct!</div></div>,,,,,,,,,,practice_feedback,500.0,practice,0.0,500.0,,,,,,,,,,,,,,,,,
,,html-keyboard-response,98,199377,21,1,IwAR2HSDgqeI167ptqdVCLLJyuYfl3smEAPD9sbuFFx9lj-T_2Zu4xb-lAJTQ,,,,,,,<div class = centerbox><div class = fixation>+</div></div>,,,,,,,,,,practice_ITI,426.2209885062607,practice,0.0,426.2209885062607,,,,,,,,"{""min"":0,""max"":5,""mean"":0.5}",,,,,,,,,
,,html-keyboard-response,99,199892,21,1,IwAR2HSDgqeI167ptqdVCLLJyuYfl3smEAPD9sbuFFx9lj-T_2Zu4xb-lAJTQ,,,,,,,"<div class=""centerbox""><div class=""fixation"">+</div></div>",,,,,,,,,,practice_fixation,500.0,practice,0.0,500.0,,,,,,,,,,,,,,,,,
,875.0,html-keyboard-response,100,201902,21,conjunction,IwAR2HSDgqeI167ptqdVCLLJyuYfl3smEAPD9sbuFFx9lj-T_2Zu4xb-lAJTQ,",",,,,,,"<div class=""container"" style=""position: absolute; left: 50%; top: 50%; transform: translate(-50%, -50%); width: 1075.1999999999998px; height: 510.99999999999994px;""><div id=""black-distractor-element""  class=""box"" style=""position: absolute; left: 183.03999999999996px; top: 4.428571428571421px; width: 40px; height: 80px; background-color: black;""></div><div id=""white-distractor-element""  class=""box"" style=""position: absolute; left: 406.0799999999999px; top: 4.428571428571421px; width: 40px; height: 80px; background-color: white; transform: rotate(90deg); transform-origin: center;""></div><div id=""white-distractor-element""  class=""box"" style=""position: absolute; left: 629.1199999999999px; top: 4.428571428571421px; width: 40px; height: 80px; background-color: white; transform: rotate(90deg); transform-origin: center;""></div><div id=""white-distractor-element""  class=""box"" style=""position: absolute; left: 852.1599999999999px; top: 4.428571428571421px; width: 40px; height: 80px; background-color: white; transform: rotate(90deg); transform-origin: center;""></div><div id=""black-distractor-element""  class=""box"" style=""position: absolute; left: 183.03999999999996px; top: 88.85714285714285px; width: 40px; height: 80px; background-color: black;""></div><div id=""black-distractor-element""  class=""box"" style=""position: absolute; left: 406.0799999999999px; top: 88.85714285714285px; width: 40px; height: 80px; background-color: black;""></div><div id=""black-distractor-element""  class=""box"" style=""position: absolute; left: 629.1199999999999px; top: 88.85714285714285px; width: 40px; height: 80px; background-color: black;""></div><div id=""white-distractor-element""  class=""box"" style=""position: absolute; left: 852.1599999999999px; top: 88.85714285714285px; width: 40px; height: 80px; background-color: white; transform: rotate(90deg); transform-origin: center;""></div><div id=""white-distractor-element""  class=""box"" style=""position: absolute; left: 183.03999999999996px; top: 173.28571428571428px; width: 40px; height: 80px; background-color: white; transform: rotate(90deg); transform-origin: center;""></div><div id=""black-distractor-element""  class=""box"" style=""position: absolute; left: 406.0799999999999px; top: 173.28571428571428px; width: 40px; height: 80px; background-color: black;""></div><div id=""black-distractor-element""  class=""box"" style=""position: absolute; left: 629.1199999999999px; top: 173.28571428571428px; width: 40px; height: 80px; background-color: black;""></div><div id=""black-distractor-element""  class=""box"" style=""position: absolute; left: 852.1599999999999px; top: 173.28571428571428px; width: 40px; height: 80px; background-color: black;""></div><div id=""black-distractor-element""  class=""box"" style=""position: absolute; left: 183.03999999999996px; top: 257.71428571428567px; width: 40px; height: 80px; background-color: black;""></div><div id=""black-distractor-element""  class=""box"" style=""position: absolute; left: 406.0799999999999px; top: 257.71428571428567px; width: 40px; height: 80px; background-color: black;""></div><div id=""black-distractor-element""  class=""box"" style=""position: absolute; left: 629.1199999999999px; top: 257.71428571428567px; width: 40px; height: 80px; background-color: black;""></div><div id=""white-distractor-element""  class=""box"" style=""position: absolute; left: 852.1599999999999px; top: 257.71428571428567px; width: 40px; height: 80px; background-color: white; transform: rotate(90deg); transform-origin: center;""></div><div id=""black-distractor-element""  class=""box"" style=""position: absolute; left: 183.03999999999996px; top: 342.1428571428571px; width: 40px; height: 80px; background-color: black;""></div><div id=""black-distractor-element""  class=""box"" style=""position: absolute; left: 406.0799999999999px; top: 342.1428571428571px; width: 40px; height: 80px; background-color: black;""></div><div id=""black-distractor-element""  class=""box"" style=""position: absolute; left: 629.1199999999999px; top: 342.1428571428571px; width: 40px; height: 80px; background-color: black;""></div><div id=""white-distractor-element""  class=""box"" style=""position: absolute; left: 852.1599999999999px; top: 342.1428571428571px; width: 40px; height: 80px; background-color: white; transform: rotate(90deg); transform-origin: center;""></div><div id=""white-distractor-element""  class=""box"" style=""position: absolute; left: 183.03999999999996px; top: 426.57142857142856px; width: 40px; height: 80px; background-color: white; transform: rotate(90deg); transform-origin: center;""></div><div id=""white-distractor-element""  class=""box"" style=""position: absolute; left: 406.0799999999999px; top: 426.57142857142856px; width: 40px; height: 80px; background-color: white; transform: rotate(90deg); transform-origin: center;""></div><div id=""black-distractor-element""  class=""box"" style=""position: absolute; left: 629.1199999999999px; top: 426.57142857142856px; width: 40px; height: 80px; background-color: black;""></div><div id=""black-distractor-element""  class=""box"" style=""position: absolute; left: 852.1599999999999px; top: 426.57142857142856px; width: 40px; height: 80px; background-color: black;""></div></div>",,,,,,,,vs,True,practice_trial,2000.0,practice,0.0,1500.0,"[""."","",""]",0.0,24.0,",",1.0,"[""black vertical"",""white horizontal"",""white horizontal"",""white horizontal"",""black vertical"",""black vertical"",""black vertical"",""white horizontal"",""white horizontal"",""black vertical"",""black vertical"",""black vertical"",""black vertical"",""black vertical"",""black vertical"",""white horizontal"",""black vertical"",""black vertical"",""black vertical"",""white horizontal"",""white horizontal"",""white horizontal"",""black vertical"",""black vertical""]",,,,,,,,,,,
,,html-keyboard-response,101,202416,21,1,IwAR2HSDgqeI167ptqdVCLLJyuYfl3smEAPD9sbuFFx9lj-T_2Zu4xb-lAJTQ,,,,,,,<div class=center-box><p class=center-text>Correct!</div></div>,,,,,,,,,,practice_feedback,500.0,practice,0.0,500.0,,,,,,,,,,,,,,,,,
,,html-keyboard-response,102,202541,21,1,IwAR2HSDgqeI167ptqdVCLLJyuYfl3smEAPD9sbuFFx9lj-T_2Zu4xb-lAJTQ,,,,,,,<div class = centerbox><div class = fixation>+</div></div>,,,,,,,,,,practice_ITI,110.5793837514881,practice,0.0,110.5793837514881,,,,,,,,"{""min"":0,""max"":5,""mean"":0.5}",,,,,,,,,
,41844.0,instructions,103,244395,21,1,IwAR2HSDgqeI167ptqdVCLLJyuYfl3smEAPD9sbuFFx9lj-T_2Zu4xb-lAJTQ,,,,,,,,,,,,,,,,,,,,,,,,,,,,,,,,,,,,,,
,9593.0,survey-multi-choice,104,253993,21,1,IwAR2HSDgqeI167ptqdVCLLJyuYfl3smEAPD9sbuFFx9lj-T_2Zu4xb-lAJTQ,"{""BDM_gen"":""This randomly selected bid gets re-generated every time I am given the option to switch.""}",[0],,,,,,,,,,,,,,,,,,,,,,,,,,,,True,,,,,,,,
,2174.0,html-button-response,105,256175,21,1,IwAR2HSDgqeI167ptqdVCLLJyuYfl3smEAPD9sbuFFx9lj-T_2Zu4xb-lAJTQ,0,,,,,,<p>CORRECT: The randomly selected bid that your offer will be compared to       will be re-generated every time you get the option to switch. </p>,,,,,,,,,,,,,,,,,,,,,,,,,,,,,,,
,7193.0,survey-multi-choice,106,263371,21,1,IwAR2HSDgqeI167ptqdVCLLJyuYfl3smEAPD9sbuFFx9lj-T_2Zu4xb-lAJTQ,"{""BDM_points"":""The points I have gained from being accurate in the experiment so far.""}",[0],,,,,,,,,,,,,,,,,,,,,,,,,,,,False,,,,,,,,
,2134.0,html-button-response,107,265509,21,1,IwAR2HSDgqeI167ptqdVCLLJyuYfl3smEAPD9sbuFFx9lj-T_2Zu4xb-lAJTQ,0,,,,,,<p>INCORRECT: The points you offer when you get the option to switch come from your initial endowment of points. </p>,,,,,,,,,,,,,,,,,,,,,,,,,,,,,,,
,3271.0,survey-multi-choice,108,268786,21,1,IwAR2HSDgqeI167ptqdVCLLJyuYfl3smEAPD9sbuFFx9lj-T_2Zu4xb-lAJTQ,"{""BDM_points"":""My initial endowment of points.""}",[0],,,,,,,,,,,,,,,,,,,,,,,,,,,,True,,,,,,,,
,1794.0,html-button-response,109,270585,21,1,IwAR2HSDgqeI167ptqdVCLLJyuYfl3smEAPD9sbuFFx9lj-T_2Zu4xb-lAJTQ,0,,,,,,<p>CORRECT: The points you offer when you get the option to switch come from your initial endowment of points. </p>,,,,,,,,,,,,,,,,,,,,,,,,,,,,,,,
,6369.0,survey-multi-choice,110,276959,21,1,IwAR2HSDgqeI167ptqdVCLLJyuYfl3smEAPD9sbuFFx9lj-T_2Zu4xb-lAJTQ,"{""BDM_should"":""Always be honest about exactly how many points I would be willing to trade.""}",[0],,,,,,,,,,,,,,,,,,,,,,,,,,,,True,,,,,,,,
,2648.0,html-button-response,111,279612,21,1,IwAR2HSDgqeI167ptqdVCLLJyuYfl3smEAPD9sbuFFx9lj-T_2Zu4xb-lAJTQ,0,,,,,,"<p>CORRECT: To get the best results when it comes to switching, you should always be honest about exactly how many points       you would be willing to trade.</p>",,,,,,,,,,,,,,,,,,,,,,,,,,,,,,,
,9140.0,instructions,112,288755,21,1,IwAR2HSDgqeI167ptqdVCLLJyuYfl3smEAPD9sbuFFx9lj-T_2Zu4xb-lAJTQ,,,,,,,,,,,,,,,,,,,,,,,,,,,,,,,,,,,,,,
,,screen-check,113,288761,21,1,IwAR2HSDgqeI167ptqdVCLLJyuYfl3smEAPD9sbuFFx9lj-T_2Zu4xb-lAJTQ,,,258.0,364.0,1536.0,864.0,,,,,,,,,,,,,,,,,,,,,,,,,,,,,,,,
,,html-keyboard-response,114,289175,21,1,IwAR2HSDgqeI167ptqdVCLLJyuYfl3smEAPD9sbuFFx9lj-T_2Zu4xb-lAJTQ,,,,,,,"<p style=""font-size: 48px;"">+</p>",,,,,,,,,,,,,,,,,,,,,,,,,,,,,,,
,4701.5,spatial-recall,115,296789,21,1,IwAR2HSDgqeI167ptqdVCLLJyuYfl3smEAPD9sbuFFx9lj-T_2Zu4xb-lAJTQ,,,,,,,,"[9,6,8,3]",False,"[9,6,8,3]",1.0,4.0,4.0,"[{""button"":9,""time"":880.5},{""button"":6,""time"":1482.6999999284744},{""button"":8,""time"":2099.5},{""button"":3,""time"":3861.399999976158},{""button"":""submit"",""time"":4701.5}]",spatial_recall,False,,,,,,,,,,,,,,,,,,,,,,
,,screen-check,116,296793,21,1,IwAR2HSDgqeI167ptqdVCLLJyuYfl3smEAPD9sbuFFx9lj-T_2Zu4xb-lAJTQ,,,258.0,364.0,1536.0,864.0,,,,,,,,,,,,,,,,,,,,,,,,,,,,,,,,
,,html-keyboard-response,117,297200,21,1,IwAR2HSDgqeI167ptqdVCLLJyuYfl3smEAPD9sbuFFx9lj-T_2Zu4xb-lAJTQ,,,,,,,"<p style=""font-size: 48px;"">+</p>",,,,,,,,,,,,,,,,,,,,,,,,,,,,,,,
,3718.299999952316,spatial-recall,118,303826,21,1,IwAR2HSDgqeI167ptqdVCLLJyuYfl3smEAPD9sbuFFx9lj-T_2Zu4xb-lAJTQ,,,,,,,,"[3,9,13,2]",False,"[3,9,13,2]",1.0,4.0,4.0,"[{""button"":3,""time"":764.5},{""button"":9,""time"":1408.8999999761581},{""button"":13,""time"":2025.1999999284744},{""button"":2,""time"":2614.5},{""button"":""submit"",""time"":3718.2999999523163}]",spatial_recall,False,,,,,,,,,,,,,,,,,,,,,,
,,screen-check,119,303831,21,1,IwAR2HSDgqeI167ptqdVCLLJyuYfl3smEAPD9sbuFFx9lj-T_2Zu4xb-lAJTQ,,,258.0,364.0,1536.0,864.0,,,,,,,,,,,,,,,,,,,,,,,,,,,,,,,,
,,html-keyboard-response,120,304236,21,1,IwAR2HSDgqeI167ptqdVCLLJyuYfl3smEAPD9sbuFFx9lj-T_2Zu4xb-lAJTQ,,,,,,,"<p style=""font-size: 48px;"">+</p>",,,,,,,,,,,,,,,,,,,,,,,,,,,,,,,
,3491.100000023842,spatial-recall,121,310648,21,1,IwAR2HSDgqeI167ptqdVCLLJyuYfl3smEAPD9sbuFFx9lj-T_2Zu4xb-lAJTQ,,,,,,,,"[10,9,12,6]",False,"[10,9,12,6]",1.0,4.0,4.0,"[{""button"":10,""time"":759.2000000476837},{""button"":9,""time"":1326.7999999523163},{""button"":12,""time"":1967},{""button"":6,""time"":2796.2000000476837},{""button"":""submit"",""time"":3491.100000023842}]",spatial_recall,False,,,,,,,,,,,,,,,,,,,,,,
,,screen-check,122,310652,21,1,IwAR2HSDgqeI167ptqdVCLLJyuYfl3smEAPD9sbuFFx9lj-T_2Zu4xb-lAJTQ,,,258.0,364.0,1536.0,864.0,,,,,,,,,,,,,,,,,,,,,,,,,,,,,,,,
,,html-keyboard-response,123,311070,21,1,IwAR2HSDgqeI167ptqdVCLLJyuYfl3smEAPD9sbuFFx9lj-T_2Zu4xb-lAJTQ,,,,,,,"<p style=""font-size: 48px;"">+</p>",,,,,,,,,,,,,,,,,,,,,,,,,,,,,,,
,3323.600000023842,spatial-recall,124,317308,21,1,IwAR2HSDgqeI167ptqdVCLLJyuYfl3smEAPD9sbuFFx9lj-T_2Zu4xb-lAJTQ,,,,,,,,"[14,4,8,1]",False,"[14,4,8,1]",1.0,4.0,4.0,"[{""button"":14,""time"":584.6999999284744},{""button"":4,""time"":1210.2999999523163},{""button"":8,""time"":1771.6999999284744},{""button"":1,""time"":2408.399999976158},{""button"":""submit"",""time"":3323.600000023842}]",spatial_recall,False,,,,,,,,,,,,,,,,,,,,,,
,,screen-check,125,317312,21,1,IwAR2HSDgqeI167ptqdVCLLJyuYfl3smEAPD9sbuFFx9lj-T_2Zu4xb-lAJTQ,,,258.0,364.0,1536.0,864.0,,,,,,,,,,,,,,,,,,,,,,,,,,,,,,,,
,,html-keyboard-response,126,317724,21,1,IwAR2HSDgqeI167ptqdVCLLJyuYfl3smEAPD9sbuFFx9lj-T_2Zu4xb-lAJTQ,,,,,,,"<p style=""font-size: 48px;"">+</p>",,,,,,,,,,,,,,,,,,,,,,,,,,,,,,,
,2923.7999999523163,spatial-recall,127,323569,21,1,IwAR2HSDgqeI167ptqdVCLLJyuYfl3smEAPD9sbuFFx9lj-T_2Zu4xb-lAJTQ,,,,,,,,"[15,11,0,4]",False,"[15,11,0,4]",1.0,4.0,4.0,"[{""button"":15,""time"":561.5},{""button"":11,""time"":1127.5999999046326},{""button"":0,""time"":1688.2999999523163},{""button"":4,""time"":2230.399999976158},{""button"":""submit"",""time"":2923.7999999523163}]",spatial_recall,False,,,,,,,,,,,,,,,,,,,,,,
,,screen-check,128,323575,21,1,IwAR2HSDgqeI167ptqdVCLLJyuYfl3smEAPD9sbuFFx9lj-T_2Zu4xb-lAJTQ,,,258.0,364.0,1536.0,864.0,,,,,,,,,,,,,,,,,,,,,,,,,,,,,,,,
,,html-keyboard-response,129,323984,21,1,IwAR2HSDgqeI167ptqdVCLLJyuYfl3smEAPD9sbuFFx9lj-T_2Zu4xb-lAJTQ,,,,,,,"<p style=""font-size: 48px;"">+</p>",,,,,,,,,,,,,,,,,,,,,,,,,,,,,,,
,3255.0,spatial-recall,130,330144,21,1,IwAR2HSDgqeI167ptqdVCLLJyuYfl3smEAPD9sbuFFx9lj-T_2Zu4xb-lAJTQ,,,,,,,,"[8,0,6,12]",False,"[8,0,6,12]",1.0,4.0,4.0,"[{""button"":8,""time"":709.6999999284744},{""button"":0,""time"":1376.5},{""button"":6,""time"":1894.7999999523163},{""button"":12,""time"":2526.7999999523163},{""button"":""submit"",""time"":3255}]",spatial_recall,False,,,,,,,,,,,,,,,,,,,,,,
,,screen-check,131,330150,21,1,IwAR2HSDgqeI167ptqdVCLLJyuYfl3smEAPD9sbuFFx9lj-T_2Zu4xb-lAJTQ,,,258.0,364.0,1536.0,864.0,,,,,,,,,,,,,,,,,,,,,,,,,,,,,,,,
,,html-keyboard-response,132,330555,21,1,IwAR2HSDgqeI167ptqdVCLLJyuYfl3smEAPD9sbuFFx9lj-T_2Zu4xb-lAJTQ,,,,,,,"<p style=""font-size: 48px;"">+</p>",,,,,,,,,,,,,,,,,,,,,,,,,,,,,,,
,4064.700000047684,spatial-recall,133,337530,21,1,IwAR2HSDgqeI167ptqdVCLLJyuYfl3smEAPD9sbuFFx9lj-T_2Zu4xb-lAJTQ,,,,,,,,"[12,8,11,15]",False,"[12,8,11,15]",1.0,4.0,4.0,"[{""button"":12,""time"":702.3000000715256},{""button"":8,""time"":1214.4000000953674},{""button"":11,""time"":2899.8000000715256},{""button"":15,""time"":3495.4000000953674},{""button"":""submit"",""time"":4064.7000000476837}]",spatial_recall,False,,,,,,,,,,,,,,,,,,,,,,
,,screen-check,134,337534,21,1,IwAR2HSDgqeI167ptqdVCLLJyuYfl3smEAPD9sbuFFx9lj-T_2Zu4xb-lAJTQ,,,258.0,364.0,1536.0,864.0,,,,,,,,,,,,,,,,,,,,,,,,,,,,,,,,
,,html-keyboard-response,135,337944,21,1,IwAR2HSDgqeI167ptqdVCLLJyuYfl3smEAPD9sbuFFx9lj-T_2Zu4xb-lAJTQ,,,,,,,"<p style=""font-size: 48px;"">+</p>",,,,,,,,,,,,,,,,,,,,,,,,,,,,,,,
,3328.899999976158,spatial-recall,136,344196,21,1,IwAR2HSDgqeI167ptqdVCLLJyuYfl3smEAPD9sbuFFx9lj-T_2Zu4xb-lAJTQ,,,,,,,,"[0,13,6,5]",False,"[0,13,6,5]",1.0,4.0,4.0,"[{""button"":0,""time"":866.8999999761581},{""button"":13,""time"":1492.1000000238419},{""button"":6,""time"":2047},{""button"":5,""time"":2602},{""button"":""submit"",""time"":3328.899999976158}]",spatial_recall,False,,,,,,,,,,,,,,,,,,,,,,
,4888.0,survey-text,137,349091,21,1,IwAR2HSDgqeI167ptqdVCLLJyuYfl3smEAPD9sbuFFx9lj-T_2Zu4xb-lAJTQ,"{""bid"":""1""}",,,,,,,,,,,,,,,,,,,,,,,,,,,,,,20.0,1.0,spatial_recall,False,,,,
,,html-keyboard-response,138,350097,21,1,IwAR2HSDgqeI167ptqdVCLLJyuYfl3smEAPD9sbuFFx9lj-T_2Zu4xb-lAJTQ,,,,,,,You will now stay in the same game.,,,,,,,,,,,,,,,,,,,,,,,,,,,,,,,
,,screen-check,139,350101,21,1,IwAR2HSDgqeI167ptqdVCLLJyuYfl3smEAPD9sbuFFx9lj-T_2Zu4xb-lAJTQ,,,258.0,364.0,1536.0,864.0,,,,,,,,,,,,,,,,,,,,,,,,,,,,,,,,
,,html-keyboard-response,140,350517,21,1,IwAR2HSDgqeI167ptqdVCLLJyuYfl3smEAPD9sbuFFx9lj-T_2Zu4xb-lAJTQ,,,,,,,"<p style=""font-size: 48px;"">+</p>",,,,,,,,,,,,,,,,,,,,,,,,,,,,,,,
,3263.100000023842,spatial-recall,141,356690,21,1,IwAR2HSDgqeI167ptqdVCLLJyuYfl3smEAPD9sbuFFx9lj-T_2Zu4xb-lAJTQ,,,,,,,,"[12,2,3,14]",False,"[12,2,3,14]",1.0,4.0,4.0,"[{""button"":12,""time"":792.7000000476837},{""button"":2,""time"":1604.4000000953674},{""button"":3,""time"":2125.100000023842},{""button"":14,""time"":2652.7000000476837},{""button"":""submit"",""time"":3263.100000023842}]",spatial_recall,False,,,,,,,,,,,,,,,,,,,,,,
