success,timeout,failed_images,failed_audio,failed_video,trial_type,trial_index,time_elapsed,run_id,condition,rt,response,question_order,stimulus,sequence,backwards,responses,score_an,score_pc,score_ls,event_history,game_type,practice,stimulus_type,correct_key,curr_level,curr_trial_duration,trial_number,cpt_type,correct,cpt_practice_accuracy,generated_BDM_value,blocks_completed,prevBlockType,switch_next_block,bonus,overall_accuracy
True,False,[],[],[],preload,0,956,13,1,,,,,,,,,,,,,,,,,,,,,,,,,,,
True,False,[],[],[],preload,1,1469,13,1,,,,,,,,,,,,,,,,,,,,,,,,,,,
,,,,,survey-multi-choice,2,5889,13,1,4419.0,"{""Consent_response"":""I agree to take part in this study.""}",[0],,,,,,,,,,,,,,,,,,,,,,,,
,,,,,instructions,3,8308,13,1,2417.0,,,,,,,,,,,,,,,,,,,,,,,,,,
,,,,,instructions,4,22751,13,1,14442.0,,,,,,,,,,,,,,,,,,,,,,,,,,
,,,,,html-keyboard-response,5,23154,13,1,,,,"<p style=""font-size: 48px;"">+</p>",,,,,,,,,,,,,,,,,,,,,,,
,,,,,spatial-recall,6,31657,13,1,5123.799999952316,,,,"[5,10,0,15,1]",False,"[5,10,0,15,1]",1.0,5.0,5.0,"[{""button"":5,""time"":1267.2999999523163},{""button"":10,""time"":1916},{""button"":0,""time"":2607.100000023842},{""button"":15,""time"":3460.5},{""button"":1,""time"":4255.5},{""button"":""submit"",""time"":5123.799999952316}]",spatial_recall,True,,,,,,,,,,,,,,
,,,,,html-keyboard-response,7,32661,13,1,,,,<p>Correct!</p>,,,,,,,,,,,,,,,,,,,,,,,
,,,,,html-keyboard-response,8,33062,13,1,,,,"<p style=""font-size: 48px;"">+</p>",,,,,,,,,,,,,,,,,,,,,,,
,,,,,spatial-recall,9,41342,13,1,4901.399999976158,,,,"[9,7,4,11,13]",False,"[9,7,4,11,13]",1.0,5.0,5.0,"[{""button"":9,""time"":906.2999999523163},{""button"":7,""time"":1822.1000000238419},{""button"":4,""time"":2601.7000000476837},{""button"":11,""time"":3413.7000000476837},{""button"":13,""time"":4032.2999999523163},{""button"":""submit"",""time"":4901.399999976158}]",spatial_recall,True,,,,,,,,,,,,,,
,,,,,html-keyboard-response,10,42346,13,1,,,,<p>Correct!</p>,,,,,,,,,,,,,,,,,,,,,,,
,,,,,html-keyboard-response,11,42749,13,1,,,,"<p style=""font-size: 48px;"">+</p>",,,,,,,,,,,,,,,,,,,,,,,
,,,,,spatial-recall,12,50280,13,1,4154.100000023842,,,,"[15,14,12,13,2]",False,"[15,14,12,13,2]",1.0,5.0,5.0,"[{""button"":15,""time"":1259.6000000238419},{""button"":14,""time"":1710.6000000238419},{""button"":12,""time"":2370},{""button"":13,""time"":2931.7999999523163},{""button"":2,""time"":3527.100000023842},{""button"":""submit"",""time"":4154.100000023842}]",spatial_recall,True,,,,,,,,,,,,,,
,,,,,html-keyboard-response,13,51284,13,1,,,,<p>Correct!</p>,,,,,,,,,,,,,,,,,,,,,,,
,,,,,html-keyboard-response,14,51686,13,1,,,,"<p style=""font-size: 48px;"">+</p>",,,,,,,,,,,,,,,,,,,,,,,
,,,,,spatial-recall,15,59317,13,1,4252.100000023842,,,,"[4,12,6,2,14]",False,"[4,12,6,2,14]",1.0,5.0,5.0,"[{""button"":4,""time"":835.8999999761581},{""button"":12,""time"":1502.8999999761581},{""button"":6,""time"":2178.5},{""button"":2,""time"":2701},{""button"":14,""time"":3520.2999999523163},{""button"":""submit"",""time"":4252.100000023842}]",spatial_recall,True,,,,,,,,,,,,,,
,,,,,html-keyboard-response,16,60319,13,1,,,,<p>Correct!</p>,,,,,,,,,,,,,,,,,,,,,,,
,,,,,html-keyboard-response,17,60722,13,1,,,,"<p style=""font-size: 48px;"">+</p>",,,,,,,,,,,,,,,,,,,,,,,
,,,,,spatial-recall,18,67977,13,1,3875.6999999284735,,,,"[3,0,5,2,9]",False,"[3,0,5,2,9]",1.0,5.0,5.0,"[{""button"":3,""time"":741},{""button"":0,""time"":1409.2999999523163},{""button"":5,""time"":1930.2999999523163},{""button"":2,""time"":2565.5},{""button"":9,""time"":3103.6999999284744},{""button"":""submit"",""time"":3875.6999999284744}]",spatial_recall,True,,,,,,,,,,,,,,
,,,,,html-keyboard-response,19,68981,13,1,,,,<p>Correct!</p>,,,,,,,,,,,,,,,,,,,,,,,
,,,,,html-keyboard-response,20,69383,13,1,,,,"<p style=""font-size: 48px;"">+</p>",,,,,,,,,,,,,,,,,,,,,,,
,,,,,spatial-recall,21,77483,13,1,4720.599999904633,,,,"[9,5,6,8,13]",False,"[9,5,6,8,13]",1.0,5.0,5.0,"[{""button"":9,""time"":1174.5},{""button"":5,""time"":1616.8999999761581},{""button"":6,""time"":2027.1999999284744},{""button"":8,""time"":2582.899999976158},{""button"":13,""time"":3272.7999999523163},{""button"":""submit"",""time"":4720.599999904633}]",spatial_recall,True,,,,,,,,,,,,,,
,,,,,html-keyboard-response,22,78487,13,1,,,,<p>Correct!</p>,,,,,,,,,,,,,,,,,,,,,,,
,,,,,html-keyboard-response,23,83146,13,1,4657.0,arrowright,,<p> Great work! You will now have practice for the next game. Press any key to continue. </p>,,,,,,,,,,,,,,,,,,,,,,,
,,,,,instructions,24,110432,13,1,27284.0,,,,,,,,,,,,,,,,,,,,,,,,,,
,,,,,survey-multi-choice,25,115938,13,1,5504.0,"{""gradcpt_question"":""Press the Enter key for a city, and nothing for a mountain""}",[0],,,,,,,,,,,,,,,,,,,,,,,,
,,,,,html-keyboard-response,26,123023,13,1,7083.0,enter,,"The correct answer is to press the Enter key when you see a city, and nothing when you see a mountain. <br><br> When you are ready, press any key to continue to the game.</p>",,,,,,,,,,,,,,,,,,,,,,,
,,,,,image-keyboard-response,27,123730,13,1,,,,./img900_esterman_w/white1_c3.gif,,,,,,,,gradcpt,True,go,enter,1.0,700.0,0.0,transition,False,,,,,,,
,,,,,image-keyboard-response,28,124435,13,1,450.0,enter,,./img900_esterman_w/city_3.jpg,,,,,,,,gradcpt,True,go,enter,1.0,700.0,0.5,img,True,,,,,,,
,,,,,image-keyboard-response,29,125140,13,1,,,,./img900_esterman_w/c3_c5.gif,,,,,,,,gradcpt,True,go,enter,1.0,700.0,1.0,transition,False,,,,,,,
,,,,,image-keyboard-response,30,125844,13,1,587.0,enter,,./img900_esterman_w/city_5.jpg,,,,,,,,gradcpt,True,go,enter,1.0,700.0,1.5,img,True,,,,,,,
,,,,,image-keyboard-response,31,126548,13,1,,,,./img900_esterman_w/c5_c6.gif,,,,,,,,gradcpt,True,go,enter,1.0,700.0,2.0,transition,False,,,,,,,
,,,,,image-keyboard-response,32,127254,13,1,408.0,enter,,./img900_esterman_w/city_6.jpg,,,,,,,,gradcpt,True,go,enter,1.0,700.0,2.5,img,True,,,,,,,
,,,,,image-keyboard-response,33,127958,13,1,,,,./img900_esterman_w/c6_c3.gif,,,,,,,,gradcpt,True,go,enter,1.0,700.0,3.0,transition,False,,,,,,,
,,,,,image-keyboard-response,34,128663,13,1,286.0,enter,,./img900_esterman_w/city_3.jpg,,,,,,,,gradcpt,True,go,enter,1.0,700.0,3.5,img,True,,,,,,,
,,,,,image-keyboard-response,35,129366,13,1,,,,./img900_esterman_w/c3_c6.gif,,,,,,,,gradcpt,True,go,enter,1.0,700.0,4.0,transition,False,,,,,,,
,,,,,image-keyboard-response,36,130070,13,1,295.0,enter,,./img900_esterman_w/city_6.jpg,,,,,,,,gradcpt,True,go,enter,1.0,700.0,4.5,img,True,,,,,,,
,,,,,image-keyboard-response,37,130774,13,1,,,,./img900_esterman_w/c6_c1.gif,,,,,,,,gradcpt,True,go,enter,1.0,700.0,5.0,transition,False,,,,,,,
,,,,,image-keyboard-response,38,131478,13,1,375.0,enter,,./img900_esterman_w/city_1.jpg,,,,,,,,gradcpt,True,go,enter,1.0,700.0,5.5,img,True,,,,,,,
,,,,,image-keyboard-response,39,132182,13,1,,,,./img900_esterman_w/c1_c3.gif,,,,,,,,gradcpt,True,go,enter,1.0,700.0,6.0,transition,False,,,,,,,
,,,,,image-keyboard-response,40,132885,13,1,290.0,enter,,./img900_esterman_w/city_3.jpg,,,,,,,,gradcpt,True,go,enter,1.0,700.0,6.5,img,True,,,,,,,
,,,,,image-keyboard-response,41,133589,13,1,,,,./img900_esterman_w/c3_c5.gif,,,,,,,,gradcpt,True,go,enter,1.0,700.0,7.0,transition,False,,,,,,,
,,,,,image-keyboard-response,42,134292,13,1,322.0,enter,,./img900_esterman_w/city_5.jpg,,,,,,,,gradcpt,True,go,enter,1.0,700.0,7.5,img,True,,,,,,,
,,,,,image-keyboard-response,43,134997,13,1,,,,./img900_esterman_w/c5_m1.gif,,,,,,,,gradcpt,True,no-go,,1.0,700.0,8.0,transition,True,,,,,,,
,,,,,image-keyboard-response,44,135700,13,1,,,,./img900_esterman_w/mountain_1.jpg,,,,,,,,gradcpt,True,no-go,,1.0,700.0,8.5,img,True,,,,,,,
,,,,,image-keyboard-response,45,136406,13,1,,,,./img900_esterman_w/m1_c5.gif,,,,,,,,gradcpt,True,go,enter,1.0,700.0,9.0,transition,False,,,,,,,
,,,,,image-keyboard-response,46,137110,13,1,312.0,enter,,./img900_esterman_w/city_5.jpg,,,,,,,,gradcpt,True,go,enter,1.0,700.0,9.5,img,True,,,,,,,
,,,,,image-keyboard-response,47,137815,13,1,,,,./img900_esterman_w/c5_c4.gif,,,,,,,,gradcpt,True,go,enter,1.0,700.0,10.0,transition,False,,,,,,,
,,,,,image-keyboard-response,48,138519,13,1,233.0,enter,,./img900_esterman_w/city_4.jpg,,,,,,,,gradcpt,True,go,enter,1.0,700.0,10.5,img,True,,,,,,,
,,,,,image-keyboard-response,49,139224,13,1,,,,./img900_esterman_w/c4_c1.gif,,,,,,,,gradcpt,True,go,enter,1.0,700.0,11.0,transition,False,,,,,,,
,,,,,image-keyboard-response,50,139929,13,1,345.0,enter,,./img900_esterman_w/city_1.jpg,,,,,,,,gradcpt,True,go,enter,1.0,700.0,11.5,img,True,,,,,,,
,,,,,image-keyboard-response,51,140633,13,1,,,,./img900_esterman_w/c1_c5.gif,,,,,,,,gradcpt,True,go,enter,1.0,700.0,12.0,transition,False,,,,,,,
,,,,,image-keyboard-response,52,141337,13,1,302.0,enter,,./img900_esterman_w/city_5.jpg,,,,,,,,gradcpt,True,go,enter,1.0,700.0,12.5,img,True,,,,,,,
,,,,,image-keyboard-response,53,142041,13,1,,,,./img900_esterman_w/c5_c2.gif,,,,,,,,gradcpt,True,go,enter,1.0,700.0,13.0,transition,False,,,,,,,
,,,,,image-keyboard-response,54,142745,13,1,315.0,enter,,./img900_esterman_w/city_2.jpg,,,,,,,,gradcpt,True,go,enter,1.0,700.0,13.5,img,True,,,,,,,
,,,,,image-keyboard-response,55,143449,13,1,,,,./img900_esterman_w/c2_c5.gif,,,,,,,,gradcpt,True,go,enter,1.0,700.0,14.0,transition,False,,,,,,,
,,,,,image-keyboard-response,56,144153,13,1,208.0,enter,,./img900_esterman_w/city_5.jpg,,,,,,,,gradcpt,True,go,enter,1.0,700.0,14.5,img,True,,,,,,,
,,,,,image-keyboard-response,57,144858,13,1,,,,./img900_esterman_w/c5_c2.gif,,,,,,,,gradcpt,True,go,enter,1.0,700.0,15.0,transition,False,,,,,,,
,,,,,image-keyboard-response,58,145563,13,1,375.0,enter,,./img900_esterman_w/city_2.jpg,,,,,,,,gradcpt,True,go,enter,1.0,700.0,15.5,img,True,,,,,,,
,,,,,image-keyboard-response,59,146267,13,1,,,,./img900_esterman_w/c2_c4.gif,,,,,,,,gradcpt,True,go,enter,1.0,700.0,16.0,transition,False,,,,,,,
,,,,,image-keyboard-response,60,146973,13,1,357.0,enter,,./img900_esterman_w/city_4.jpg,,,,,,,,gradcpt,True,go,enter,1.0,700.0,16.5,img,True,,,,,,,
,,,,,image-keyboard-response,61,147678,13,1,,,,./img900_esterman_w/c4_c1.gif,,,,,,,,gradcpt,True,go,enter,1.0,700.0,17.0,transition,False,,,,,,,
,,,,,image-keyboard-response,62,148384,13,1,276.0,enter,,./img900_esterman_w/city_1.jpg,,,,,,,,gradcpt,True,go,enter,1.0,700.0,17.5,img,True,,,,,,,
,,,,,image-keyboard-response,63,149090,13,1,,,,./img900_esterman_w/c1_c5.gif,,,,,,,,gradcpt,True,go,enter,1.0,700.0,18.0,transition,False,,,,,,,
,,,,,image-keyboard-response,64,149794,13,1,338.0,enter,,./img900_esterman_w/city_5.jpg,,,,,,,,gradcpt,True,go,enter,1.0,700.0,18.5,img,True,,,,,,,
,,,,,image-keyboard-response,65,150497,13,1,,,,./img900_esterman_w/c5_c4.gif,,,,,,,,gradcpt,True,go,enter,1.0,700.0,19.0,transition,False,,,,,,,
,,,,,image-keyboard-response,66,151202,13,1,358.0,enter,,./img900_esterman_w/city_4.jpg,,,,,,,,gradcpt,True,go,enter,1.0,700.0,19.5,img,True,,,,,,,
,,,,,image-keyboard-response,67,151908,13,1,,,,./img900_esterman_w/c4_c3.gif,,,,,,,,gradcpt,True,go,enter,1.0,700.0,20.0,transition,False,,,,,,,
,,,,,image-keyboard-response,68,152613,13,1,84.0,enter,,./img900_esterman_w/city_3.jpg,,,,,,,,gradcpt,True,go,enter,1.0,700.0,20.5,img,True,,,,,,,
,,,,,image-keyboard-response,69,153319,13,1,,,,./img900_esterman_w/c3_c5.gif,,,,,,,,gradcpt,True,go,enter,1.0,700.0,21.0,transition,False,,,,,,,
,,,,,image-keyboard-response,70,154024,13,1,324.0,enter,,./img900_esterman_w/city_5.jpg,,,,,,,,gradcpt,True,go,enter,1.0,700.0,21.5,img,True,,,,,,,
,,,,,image-keyboard-response,71,154730,13,1,,,,./img900_esterman_w/c5_c1.gif,,,,,,,,gradcpt,True,go,enter,1.0,700.0,22.0,transition,False,,,,,,,
,,,,,image-keyboard-response,72,155436,13,1,291.0,enter,,./img900_esterman_w/city_1.jpg,,,,,,,,gradcpt,True,go,enter,1.0,700.0,22.5,img,True,,,,,,,
,,,,,image-keyboard-response,73,156141,13,1,,,,./img900_esterman_w/c1_c5.gif,,,,,,,,gradcpt,True,go,enter,1.0,700.0,23.0,transition,False,,,,,,,
,,,,,image-keyboard-response,74,156847,13,1,405.0,enter,,./img900_esterman_w/city_5.jpg,,,,,,,,gradcpt,True,go,enter,1.0,700.0,23.5,img,True,,,,,,,
,,,,,image-keyboard-response,75,157553,13,1,,,,./img900_esterman_w/c5_c6.gif,,,,,,,,gradcpt,True,go,enter,1.0,700.0,24.0,transition,False,,,,,,,
,,,,,image-keyboard-response,76,158258,13,1,206.0,enter,,./img900_esterman_w/city_6.jpg,,,,,,,,gradcpt,True,go,enter,1.0,700.0,24.5,img,True,,,,,,,
,,,,,image-keyboard-response,77,158965,13,1,,,,./img900_esterman_w/c6_c3.gif,,,,,,,,gradcpt,True,go,enter,1.0,700.0,25.0,transition,False,,,,,,,
,,,,,image-keyboard-response,78,159670,13,1,47.0,enter,,./img900_esterman_w/city_3.jpg,,,,,,,,gradcpt,True,go,enter,1.0,700.0,25.5,img,True,,,,,,,
,,,,,image-keyboard-response,79,160375,13,1,,,,./img900_esterman_w/c3_c1.gif,,,,,,,,gradcpt,True,go,enter,1.0,700.0,26.0,transition,False,,,,,,,
,,,,,image-keyboard-response,80,161079,13,1,251.0,enter,,./img900_esterman_w/city_1.jpg,,,,,,,,gradcpt,True,go,enter,1.0,700.0,26.5,img,True,,,,,,,
,,,,,image-keyboard-response,81,161784,13,1,,,,./img900_esterman_w/c1_c6.gif,,,,,,,,gradcpt,True,go,enter,1.0,700.0,27.0,transition,False,,,,,,,
,,,,,image-keyboard-response,82,162490,13,1,271.0,enter,,./img900_esterman_w/city_6.jpg,,,,,,,,gradcpt,True,go,enter,1.0,700.0,27.5,img,True,,,,,,,
,,,,,image-keyboard-response,83,163197,13,1,,,,./img900_esterman_w/c6_c5.gif,,,,,,,,gradcpt,True,go,enter,1.0,700.0,28.0,transition,False,,,,,,,
,,,,,image-keyboard-response,84,163902,13,1,385.0,enter,,./img900_esterman_w/city_5.jpg,,,,,,,,gradcpt,True,go,enter,1.0,700.0,28.5,img,True,,,,,,,
,,,,,image-keyboard-response,85,164608,13,1,,,,./img900_esterman_w/c5_c6.gif,,,,,,,,gradcpt,True,go,enter,1.0,700.0,29.0,transition,False,,,,,,,
,,,,,image-keyboard-response,86,165315,13,1,170.0,enter,,./img900_esterman_w/city_6.jpg,,,,,,,,gradcpt,True,go,enter,1.0,700.0,29.5,img,True,,,,,,,
,,,,,image-keyboard-response,87,166020,13,1,,,,./img900_esterman_w/c6_white1.gif,,,,,,,,gradcpt,True,filler,enter,1.0,700.0,3.0,transition,,100.0,,,,,,
,,,,,html-keyboard-response,88,168025,13,1,,,,<div>You got 100% correct </p>,,,,,,,,,,,,,,,,,,,,,,,
,,,,,instructions,89,229118,13,1,61089.0,,,,,,,,,,,,,,,,,,,,,,,,,,
,,,,,survey-multi-choice,90,266271,13,1,37148.0,"{""BDM_gen"":""This randomly selected bid gets re-generated every time I am given the option to switch."",""BDM_points"":""My initial endowment of points."",""BDM_should"":""Always be honest about exactly how many points I would be willing to trade.""}","[0,1,2]",,,,,,,,,,,,,,,,,,,,,,,,
,,,,,html-keyboard-response,91,275442,13,1,9167.0, ,,"<p> The correct answers are: <br><br> 1. The randomly selected bid that your offer will be compared to     will be re-generated every time you get the option to switch. <br>     2. The points you offer when you get the option to switch come from your initial endowment of points.<br><br>     3. To get the best results when it comes to switching, you should always be honest about exactly how many points      you would be willing to trade. <br> Press any key to continue. </p>",,,,,,,,,,,,,,,,,,,,,,,
,,,,,instructions,92,290379,13,1,14932.0,,,,,,,,,,,,,,,,,,,,,,,,,,
True,False,[],[],[],preload,93,290386,13,1,,,,,,,,,,,,,,,,,,,,,,,,,,,
,,,,,image-keyboard-response,94,291089,13,1,,,,./img900_esterman_w/white1_c6.gif,,,,,,,,gradcpt,False,go,enter,1.0,700.0,0.0,transition,False,,,,,,,
,,,,,image-keyboard-response,95,291796,13,1,664.0,enter,,./img900_esterman_w/city_6.jpg,,,,,,,,gradcpt,False,go,enter,1.0,700.0,0.5,img,True,,,,,,,
,,,,,image-keyboard-response,96,292501,13,1,,,,./img900_esterman_w/c6_c1.gif,,,,,,,,gradcpt,False,go,enter,1.0,700.0,1.0,transition,False,,,,,,,
,,,,,image-keyboard-response,97,293208,13,1,371.0,enter,,./img900_esterman_w/city_1.jpg,,,,,,,,gradcpt,False,go,enter,1.0,700.0,1.5,img,True,,,,,,,
,,,,,image-keyboard-response,98,293914,13,1,,,,./img900_esterman_w/c1_c3.gif,,,,,,,,gradcpt,False,go,enter,1.0,700.0,2.0,transition,False,,,,,,,
,,,,,image-keyboard-response,99,294620,13,1,265.0,enter,,./img900_esterman_w/city_3.jpg,,,,,,,,gradcpt,False,go,enter,1.0,700.0,2.5,img,True,,,,,,,
,,,,,image-keyboard-response,100,295325,13,1,,,,./img900_esterman_w/c3_c5.gif,,,,,,,,gradcpt,False,go,enter,1.0,700.0,3.0,transition,False,,,,,,,
,,,,,image-keyboard-response,101,296029,13,1,278.0,enter,,./img900_esterman_w/city_5.jpg,,,,,,,,gradcpt,False,go,enter,1.0,700.0,3.5,img,True,,,,,,,
,,,,,image-keyboard-response,102,296733,13,1,,,,./img900_esterman_w/c5_c1.gif,,,,,,,,gradcpt,False,go,enter,1.0,700.0,4.0,transition,False,,,,,,,
,,,,,image-keyboard-response,103,297439,13,1,276.0,enter,,./img900_esterman_w/city_1.jpg,,,,,,,,gradcpt,False,go,enter,1.0,700.0,4.5,img,True,,,,,,,
,,,,,image-keyboard-response,104,298144,13,1,,,,./img900_esterman_w/c1_c5.gif,,,,,,,,gradcpt,False,go,enter,1.0,700.0,5.0,transition,False,,,,,,,
,,,,,image-keyboard-response,105,298850,13,1,348.0,enter,,./img900_esterman_w/city_5.jpg,,,,,,,,gradcpt,False,go,enter,1.0,700.0,5.5,img,True,,,,,,,
,,,,,image-keyboard-response,106,299557,13,1,,,,./img900_esterman_w/c5_c6.gif,,,,,,,,gradcpt,False,go,enter,1.0,700.0,6.0,transition,False,,,,,,,
,,,,,image-keyboard-response,107,300262,13,1,389.0,enter,,./img900_esterman_w/city_6.jpg,,,,,,,,gradcpt,False,go,enter,1.0,700.0,6.5,img,True,,,,,,,
,,,,,image-keyboard-response,108,300967,13,1,,,,./img900_esterman_w/c6_c1.gif,,,,,,,,gradcpt,False,go,enter,1.0,700.0,7.0,transition,False,,,,,,,
,,,,,image-keyboard-response,109,301675,13,1,443.0,enter,,./img900_esterman_w/city_1.jpg,,,,,,,,gradcpt,False,go,enter,1.0,700.0,7.5,img,True,,,,,,,
,,,,,image-keyboard-response,110,302382,13,1,,,,./img900_esterman_w/c1_c3.gif,,,,,,,,gradcpt,False,go,enter,1.0,700.0,8.0,transition,False,,,,,,,
,,,,,image-keyboard-response,111,303088,13,1,222.0,enter,,./img900_esterman_w/city_3.jpg,,,,,,,,gradcpt,False,go,enter,1.0,700.0,8.5,img,True,,,,,,,
,,,,,image-keyboard-response,112,303793,13,1,,,,./img900_esterman_w/c3_c5.gif,,,,,,,,gradcpt,False,go,enter,1.0,700.0,9.0,transition,False,,,,,,,
,,,,,image-keyboard-response,113,304499,13,1,189.0,enter,,./img900_esterman_w/city_5.jpg,,,,,,,,gradcpt,False,go,enter,1.0,700.0,9.5,img,True,,,,,,,
,,,,,image-keyboard-response,114,305203,13,1,,,,./img900_esterman_w/c5_c6.gif,,,,,,,,gradcpt,False,go,enter,1.0,700.0,10.0,transition,False,,,,,,,
,,,,,image-keyboard-response,115,305910,13,1,142.0,enter,,./img900_esterman_w/city_6.jpg,,,,,,,,gradcpt,False,go,enter,1.0,700.0,10.5,img,True,,,,,,,
,,,,,image-keyboard-response,116,306617,13,1,,,,./img900_esterman_w/c6_c4.gif,,,,,,,,gradcpt,False,go,enter,1.0,700.0,11.0,transition,False,,,,,,,
,,,,,image-keyboard-response,117,307322,13,1,134.0,enter,,./img900_esterman_w/city_4.jpg,,,,,,,,gradcpt,False,go,enter,1.0,700.0,11.5,img,True,,,,,,,
,,,,,image-keyboard-response,118,308027,13,1,,,,./img900_esterman_w/c4_c1.gif,,,,,,,,gradcpt,False,go,enter,1.0,700.0,12.0,transition,False,,,,,,,
,,,,,image-keyboard-response,119,308733,13,1,133.0,enter,,./img900_esterman_w/city_1.jpg,,,,,,,,gradcpt,False,go,enter,1.0,700.0,12.5,img,True,,,,,,,
,,,,,image-keyboard-response,120,309440,13,1,,,,./img900_esterman_w/c1_c2.gif,,,,,,,,gradcpt,False,go,enter,1.0,700.0,13.0,transition,False,,,,,,,
,,,,,image-keyboard-response,121,310147,13,1,305.0,enter,,./img900_esterman_w/city_2.jpg,,,,,,,,gradcpt,False,go,enter,1.0,700.0,13.5,img,True,,,,,,,
,,,,,image-keyboard-response,122,310854,13,1,,,,./img900_esterman_w/c2_c4.gif,,,,,,,,gradcpt,False,go,enter,1.0,700.0,14.0,transition,False,,,,,,,
,,,,,image-keyboard-response,123,311560,13,1,119.0,enter,,./img900_esterman_w/city_4.jpg,,,,,,,,gradcpt,False,go,enter,1.0,700.0,14.5,img,True,,,,,,,
,,,,,image-keyboard-response,124,312266,13,1,,,,./img900_esterman_w/c4_c3.gif,,,,,,,,gradcpt,False,go,enter,1.0,700.0,15.0,transition,False,,,,,,,
,,,,,image-keyboard-response,125,312970,13,1,226.0,enter,,./img900_esterman_w/city_3.jpg,,,,,,,,gradcpt,False,go,enter,1.0,700.0,15.5,img,True,,,,,,,
,,,,,image-keyboard-response,126,313677,13,1,,,,./img900_esterman_w/c3_c5.gif,,,,,,,,gradcpt,False,go,enter,1.0,700.0,16.0,transition,False,,,,,,,
,,,,,image-keyboard-response,127,314383,13,1,86.0,enter,,./img900_esterman_w/city_5.jpg,,,,,,,,gradcpt,False,go,enter,1.0,700.0,16.5,img,True,,,,,,,
,,,,,image-keyboard-response,128,315090,13,1,,,,./img900_esterman_w/c5_c4.gif,,,,,,,,gradcpt,False,go,enter,1.0,700.0,17.0,transition,False,,,,,,,
,,,,,image-keyboard-response,129,315797,13,1,364.0,enter,,./img900_esterman_w/city_4.jpg,,,,,,,,gradcpt,False,go,enter,1.0,700.0,17.5,img,True,,,,,,,
,,,,,image-keyboard-response,130,316503,13,1,,,,./img900_esterman_w/c4_c3.gif,,,,,,,,gradcpt,False,go,enter,1.0,700.0,18.0,transition,False,,,,,,,
,,,,,image-keyboard-response,131,317210,13,1,206.0,enter,,./img900_esterman_w/city_3.jpg,,,,,,,,gradcpt,False,go,enter,1.0,700.0,18.5,img,True,,,,,,,
,,,,,image-keyboard-response,132,317918,13,1,,,,./img900_esterman_w/c3_c2.gif,,,,,,,,gradcpt,False,go,enter,1.0,700.0,19.0,transition,False,,,,,,,
,,,,,image-keyboard-response,133,318625,13,1,125.0,enter,,./img900_esterman_w/city_2.jpg,,,,,,,,gradcpt,False,go,enter,1.0,700.0,19.5,img,True,,,,,,,
,,,,,image-keyboard-response,134,319333,13,1,,,,./img900_esterman_w/c2_c6.gif,,,,,,,,gradcpt,False,go,enter,1.0,700.0,20.0,transition,False,,,,,,,
,,,,,image-keyboard-response,135,320039,13,1,174.0,enter,,./img900_esterman_w/city_6.jpg,,,,,,,,gradcpt,False,go,enter,1.0,700.0,20.5,img,True,,,,,,,
,,,,,image-keyboard-response,136,320746,13,1,,,,./img900_esterman_w/c6_c3.gif,,,,,,,,gradcpt,False,go,enter,1.0,700.0,21.0,transition,False,,,,,,,
,,,,,image-keyboard-response,137,321453,13,1,223.0,enter,,./img900_esterman_w/city_3.jpg,,,,,,,,gradcpt,False,go,enter,1.0,700.0,21.5,img,True,,,,,,,
,,,,,image-keyboard-response,138,322159,13,1,,,,./img900_esterman_w/c3_c1.gif,,,,,,,,gradcpt,False,go,enter,1.0,700.0,22.0,transition,False,,,,,,,
,,,,,image-keyboard-response,139,322865,13,1,259.0,enter,,./img900_esterman_w/city_1.jpg,,,,,,,,gradcpt,False,go,enter,1.0,700.0,22.5,img,True,,,,,,,
,,,,,image-keyboard-response,140,323574,13,1,,,,./img900_esterman_w/c1_c5.gif,,,,,,,,gradcpt,False,go,enter,1.0,700.0,23.0,transition,False,,,,,,,
,,,,,image-keyboard-response,141,324280,13,1,339.0,enter,,./img900_esterman_w/city_5.jpg,,,,,,,,gradcpt,False,go,enter,1.0,700.0,23.5,img,True,,,,,,,
,,,,,image-keyboard-response,142,324986,13,1,,,,./img900_esterman_w/c5_c2.gif,,,,,,,,gradcpt,False,go,enter,1.0,700.0,24.0,transition,False,,,,,,,
,,,,,image-keyboard-response,143,325692,13,1,204.0,enter,,./img900_esterman_w/city_2.jpg,,,,,,,,gradcpt,False,go,enter,1.0,700.0,24.5,img,True,,,,,,,
,,,,,image-keyboard-response,144,326398,13,1,,,,./img900_esterman_w/c2_c3.gif,,,,,,,,gradcpt,False,go,enter,1.0,700.0,25.0,transition,False,,,,,,,
,,,,,image-keyboard-response,145,327104,13,1,112.0,enter,,./img900_esterman_w/city_3.jpg,,,,,,,,gradcpt,False,go,enter,1.0,700.0,25.5,img,True,,,,,,,
,,,,,image-keyboard-response,146,327810,13,1,,,,./img900_esterman_w/c3_c4.gif,,,,,,,,gradcpt,False,go,enter,1.0,700.0,26.0,transition,False,,,,,,,
,,,,,image-keyboard-response,147,328517,13,1,134.0,enter,,./img900_esterman_w/city_4.jpg,,,,,,,,gradcpt,False,go,enter,1.0,700.0,26.5,img,True,,,,,,,
,,,,,image-keyboard-response,148,329222,13,1,,,,./img900_esterman_w/c4_c6.gif,,,,,,,,gradcpt,False,go,enter,1.0,700.0,27.0,transition,False,,,,,,,
,,,,,image-keyboard-response,149,329925,13,1,226.0,enter,,./img900_esterman_w/city_6.jpg,,,,,,,,gradcpt,False,go,enter,1.0,700.0,27.5,img,True,,,,,,,
,,,,,image-keyboard-response,150,330634,13,1,,,,./img900_esterman_w/c6_m1.gif,,,,,,,,gradcpt,False,no-go,,1.0,700.0,28.0,transition,True,,,,,,,
,,,,,image-keyboard-response,151,331340,13,1,,,,./img900_esterman_w/mountain_1.jpg,,,,,,,,gradcpt,False,no-go,,1.0,700.0,28.5,img,True,,,,,,,
,,,,,image-keyboard-response,152,332047,13,1,,,,./img900_esterman_w/m1_c2.gif,,,,,,,,gradcpt,False,go,enter,1.0,700.0,29.0,transition,False,,,,,,,
,,,,,image-keyboard-response,153,332754,13,1,299.0,enter,,./img900_esterman_w/city_2.jpg,,,,,,,,gradcpt,False,go,enter,1.0,700.0,29.5,img,True,,,,,,,
,,,,,image-keyboard-response,154,333461,13,1,,,,./img900_esterman_w/c2_c5.gif,,,,,,,,gradcpt,False,go,enter,1.0,700.0,30.0,transition,False,,,,,,,
,,,,,image-keyboard-response,155,334168,13,1,286.0,enter,,./img900_esterman_w/city_5.jpg,,,,,,,,gradcpt,False,go,enter,1.0,700.0,30.5,img,True,,,,,,,
,,,,,image-keyboard-response,156,334875,13,1,,,,./img900_esterman_w/c5_c2.gif,,,,,,,,gradcpt,False,go,enter,1.0,700.0,31.0,transition,False,,,,,,,
,,,,,image-keyboard-response,157,335581,13,1,130.0,enter,,./img900_esterman_w/city_2.jpg,,,,,,,,gradcpt,False,go,enter,1.0,700.0,31.5,img,True,,,,,,,
,,,,,image-keyboard-response,158,336289,13,1,,,,./img900_esterman_w/c2_c4.gif,,,,,,,,gradcpt,False,go,enter,1.0,700.0,32.0,transition,False,,,,,,,
,,,,,image-keyboard-response,159,336996,13,1,155.0,enter,,./img900_esterman_w/city_4.jpg,,,,,,,,gradcpt,False,go,enter,1.0,700.0,32.5,img,True,,,,,,,
,,,,,image-keyboard-response,160,337703,13,1,,,,./img900_esterman_w/c4_c5.gif,,,,,,,,gradcpt,False,go,enter,1.0,700.0,33.0,transition,False,,,,,,,
,,,,,image-keyboard-response,161,338410,13,1,272.0,enter,,./img900_esterman_w/city_5.jpg,,,,,,,,gradcpt,False,go,enter,1.0,700.0,33.5,img,True,,,,,,,
,,,,,image-keyboard-response,162,339118,13,1,,,,./img900_esterman_w/c5_c1.gif,,,,,,,,gradcpt,False,go,enter,1.0,700.0,34.0,transition,False,,,,,,,
,,,,,image-keyboard-response,163,339825,13,1,250.0,enter,,./img900_esterman_w/city_1.jpg,,,,,,,,gradcpt,False,go,enter,1.0,700.0,34.5,img,True,,,,,,,
,,,,,image-keyboard-response,164,340531,13,1,,,,./img900_esterman_w/c1_c2.gif,,,,,,,,gradcpt,False,go,enter,1.0,700.0,35.0,transition,False,,,,,,,
,,,,,image-keyboard-response,165,341238,13,1,234.0,enter,,./img900_esterman_w/city_2.jpg,,,,,,,,gradcpt,False,go,enter,1.0,700.0,35.5,img,True,,,,,,,
,,,,,image-keyboard-response,166,341946,13,1,,,,./img900_esterman_w/c2_c6.gif,,,,,,,,gradcpt,False,go,enter,1.0,700.0,36.0,transition,False,,,,,,,
,,,,,image-keyboard-response,167,342653,13,1,239.0,enter,,./img900_esterman_w/city_6.jpg,,,,,,,,gradcpt,False,go,enter,1.0,700.0,36.5,img,True,,,,,,,
,,,,,image-keyboard-response,168,343361,13,1,,,,./img900_esterman_w/c6_c2.gif,,,,,,,,gradcpt,False,go,enter,1.0,700.0,37.0,transition,False,,,,,,,
,,,,,image-keyboard-response,169,344067,13,1,297.0,enter,,./img900_esterman_w/city_2.jpg,,,,,,,,gradcpt,False,go,enter,1.0,700.0,37.5,img,True,,,,,,,
,,,,,image-keyboard-response,170,344774,13,1,,,,./img900_esterman_w/c2_c6.gif,,,,,,,,gradcpt,False,go,enter,1.0,700.0,38.0,transition,False,,,,,,,
,,,,,image-keyboard-response,171,345480,13,1,196.0,enter,,./img900_esterman_w/city_6.jpg,,,,,,,,gradcpt,False,go,enter,1.0,700.0,38.5,img,True,,,,,,,
,,,,,image-keyboard-response,172,346187,13,1,,,,./img900_esterman_w/c6_c4.gif,,,,,,,,gradcpt,False,go,enter,1.0,700.0,39.0,transition,False,,,,,,,
,,,,,image-keyboard-response,173,346895,13,1,197.0,enter,,./img900_esterman_w/city_4.jpg,,,,,,,,gradcpt,False,go,enter,1.0,700.0,39.5,img,True,,,,,,,
,,,,,image-keyboard-response,174,347604,13,1,,,,./img900_esterman_w/c4_white1.gif,,,,,,,,gradcpt,False,filler,enter,1.0,700.0,3.0,transition,,,,,,,,
,,,,,survey-text,175,351552,13,1,3937.0,"{""bid"":""2""}",,,,,,,,,,,,,,,,,,,,54.0,1.0,gradcpt,False,,
,,,,,html-keyboard-response,176,352557,13,1,,,,You will now stay in the same game.,,,,,,,,,,,,,,,,,,,,,,,
,,,,,image-keyboard-response,177,353266,13,1,,,,./img900_esterman_w/white1_c6.gif,,,,,,,,gradcpt,False,go,enter,1.0,700.0,0.0,transition,False,,,,,,,
,,,,,image-keyboard-response,178,353974,13,1,361.0,enter,,./img900_esterman_w/city_6.jpg,,,,,,,,gradcpt,False,go,enter,1.0,700.0,0.5,img,True,,,,,,,
,,,,,image-keyboard-response,179,354683,13,1,,,,./img900_esterman_w/c6_c1.gif,,,,,,,,gradcpt,False,go,enter,1.0,700.0,1.0,transition,False,,,,,,,
,,,,,image-keyboard-response,180,355390,13,1,377.0,enter,,./img900_esterman_w/city_1.jpg,,,,,,,,gradcpt,False,go,enter,1.0,700.0,1.5,img,True,,,,,,,
,,,,,image-keyboard-response,181,356099,13,1,,,,./img900_esterman_w/c1_c3.gif,,,,,,,,gradcpt,False,go,enter,1.0,700.0,2.0,transition,False,,,,,,,
,,,,,image-keyboard-response,182,356807,13,1,256.0,enter,,./img900_esterman_w/city_3.jpg,,,,,,,,gradcpt,False,go,enter,1.0,700.0,2.5,img,True,,,,,,,
,,,,,image-keyboard-response,183,357510,13,1,,,,./img900_esterman_w/c3_c5.gif,,,,,,,,gradcpt,False,go,enter,1.0,700.0,3.0,transition,False,,,,,,,
,,,,,image-keyboard-response,184,358218,13,1,91.0,enter,,./img900_esterman_w/city_5.jpg,,,,,,,,gradcpt,False,go,enter,1.0,700.0,3.5,img,True,,,,,,,
,,,,,image-keyboard-response,185,358927,13,1,,,,./img900_esterman_w/c5_c1.gif,,,,,,,,gradcpt,False,go,enter,1.0,700.0,4.0,transition,False,,,,,,,
,,,,,image-keyboard-response,186,359635,13,1,81.0,enter,,./img900_esterman_w/city_1.jpg,,,,,,,,gradcpt,False,go,enter,1.0,700.0,4.5,img,True,,,,,,,
,,,,,image-keyboard-response,187,360344,13,1,,,,./img900_esterman_w/c1_c5.gif,,,,,,,,gradcpt,False,go,enter,1.0,700.0,5.0,transition,False,,,,,,,
,,,,,image-keyboard-response,188,361053,13,1,456.0,enter,,./img900_esterman_w/city_5.jpg,,,,,,,,gradcpt,False,go,enter,1.0,700.0,5.5,img,True,,,,,,,
,,,,,image-keyboard-response,189,361761,13,1,,,,./img900_esterman_w/c5_c6.gif,,,,,,,,gradcpt,False,go,enter,1.0,700.0,6.0,transition,False,,,,,,,
,,,,,image-keyboard-response,190,362469,13,1,118.0,enter,,./img900_esterman_w/city_6.jpg,,,,,,,,gradcpt,False,go,enter,1.0,700.0,6.5,img,True,,,,,,,
,,,,,image-keyboard-response,191,363177,13,1,,,,./img900_esterman_w/c6_c1.gif,,,,,,,,gradcpt,False,go,enter,1.0,700.0,7.0,transition,False,,,,,,,
,,,,,image-keyboard-response,192,363886,13,1,94.0,enter,,./img900_esterman_w/city_1.jpg,,,,,,,,gradcpt,False,go,enter,1.0,700.0,7.5,img,True,,,,,,,
,,,,,image-keyboard-response,193,364594,13,1,622.0,enter,,./img900_esterman_w/c1_c3.gif,,,,,,,,gradcpt,False,go,enter,1.0,700.0,8.0,transition,True,,,,,,,
,,,,,image-keyboard-response,194,365302,13,1,,,,./img900_esterman_w/city_3.jpg,,,,,,,,gradcpt,False,go,enter,1.0,700.0,8.5,img,True,,,,,,,
,,,,,image-keyboard-response,195,366010,13,1,,,,./img900_esterman_w/c3_c5.gif,,,,,,,,gradcpt,False,go,enter,1.0,700.0,9.0,transition,False,,,,,,,
,,,,,image-keyboard-response,196,366719,13,1,164.0,enter,,./img900_esterman_w/city_5.jpg,,,,,,,,gradcpt,False,go,enter,1.0,700.0,9.5,img,True,,,,,,,
,,,,,image-keyboard-response,197,367428,13,1,,,,./img900_esterman_w/c5_c6.gif,,,,,,,,gradcpt,False,go,enter,1.0,700.0,10.0,transition,False,,,,,,,
,,,,,image-keyboard-response,198,368136,13,1,148.0,enter,,./img900_esterman_w/city_6.jpg,,,,,,,,gradcpt,False,go,enter,1.0,700.0,10.5,img,True,,,,,,,
,,,,,image-keyboard-response,199,368844,13,1,,,,./img900_esterman_w/c6_c4.gif,,,,,,,,gradcpt,False,go,enter,1.0,700.0,11.0,transition,False,,,,,,,
,,,,,image-keyboard-response,200,369553,13,1,144.0,enter,,./img900_esterman_w/city_4.jpg,,,,,,,,gradcpt,False,go,enter,1.0,700.0,11.5,img,True,,,,,,,
,,,,,image-keyboard-response,201,370261,13,1,687.0,enter,,./img900_esterman_w/c4_c1.gif,,,,,,,,gradcpt,False,go,enter,1.0,700.0,12.0,transition,True,,,,,,,
,,,,,image-keyboard-response,202,370969,13,1,,,,./img900_esterman_w/city_1.jpg,,,,,,,,gradcpt,False,go,enter,1.0,700.0,12.5,img,True,,,,,,,
,,,,,image-keyboard-response,203,371677,13,1,,,,./img900_esterman_w/c1_c2.gif,,,,,,,,gradcpt,False,go,enter,1.0,700.0,13.0,transition,False,,,,,,,
,,,,,image-keyboard-response,204,372386,13,1,7.0,enter,,./img900_esterman_w/city_2.jpg,,,,,,,,gradcpt,False,go,enter,1.0,700.0,13.5,img,True,,,,,,,
,,,,,image-keyboard-response,205,373093,13,1,,,,./img900_esterman_w/c2_c4.gif,,,,,,,,gradcpt,False,go,enter,1.0,700.0,14.0,transition,False,,,,,,,
,,,,,image-keyboard-response,206,373799,13,1,54.0,enter,,./img900_esterman_w/city_4.jpg,,,,,,,,gradcpt,False,go,enter,1.0,700.0,14.5,img,True,,,,,,,
,,,,,image-keyboard-response,207,374508,13,1,,,,./img900_esterman_w/c4_c3.gif,,,,,,,,gradcpt,False,go,enter,1.0,700.0,15.0,transition,False,,,,,,,
,,,,,image-keyboard-response,208,375217,13,1,191.0,enter,,./img900_esterman_w/city_3.jpg,,,,,,,,gradcpt,False,go,enter,1.0,700.0,15.5,img,True,,,,,,,
,,,,,image-keyboard-response,209,375926,13,1,,,,./img900_esterman_w/c3_c5.gif,,,,,,,,gradcpt,False,go,enter,1.0,700.0,16.0,transition,False,,,,,,,
,,,,,image-keyboard-response,210,376635,13,1,224.0,enter,,./img900_esterman_w/city_5.jpg,,,,,,,,gradcpt,False,go,enter,1.0,700.0,16.5,img,True,,,,,,,
,,,,,image-keyboard-response,211,377343,13,1,,,,./img900_esterman_w/c5_c4.gif,,,,,,,,gradcpt,False,go,enter,1.0,700.0,17.0,transition,False,,,,,,,
,,,,,image-keyboard-response,212,378051,13,1,70.0,enter,,./img900_esterman_w/city_4.jpg,,,,,,,,gradcpt,False,go,enter,1.0,700.0,17.5,img,True,,,,,,,
,,,,,image-keyboard-response,213,378762,13,1,533.0,enter,,./img900_esterman_w/c4_c3.gif,,,,,,,,gradcpt,False,go,enter,1.0,700.0,18.0,transition,True,,,,,,,
,,,,,image-keyboard-response,214,379471,13,1,,,,./img900_esterman_w/city_3.jpg,,,,,,,,gradcpt,False,go,enter,1.0,700.0,18.5,img,True,,,,,,,
,,,,,image-keyboard-response,215,380180,13,1,,,,./img900_esterman_w/c3_c2.gif,,,,,,,,gradcpt,False,go,enter,1.0,700.0,19.0,transition,False,,,,,,,
,,,,,image-keyboard-response,216,380890,13,1,137.0,enter,,./img900_esterman_w/city_2.jpg,,,,,,,,gradcpt,False,go,enter,1.0,700.0,19.5,img,True,,,,,,,
,,,,,image-keyboard-response,217,381597,13,1,,,,./img900_esterman_w/c2_c6.gif,,,,,,,,gradcpt,False,go,enter,1.0,700.0,20.0,transition,False,,,,,,,
,,,,,image-keyboard-response,218,382304,13,1,,,,./img900_esterman_w/city_6.jpg,,,,,,,,gradcpt,False,go,enter,1.0,700.0,20.5,img,False,,,,,,,
,,,,,image-keyboard-response,219,383015,13,1,110.0,enter,,./img900_esterman_w/c6_c3.gif,,,,,,,,gradcpt,False,go,enter,1.0,700.0,21.0,transition,True,,,,,,,
,,,,,image-keyboard-response,220,383722,13,1,425.0,enter,,./img900_esterman_w/city_3.jpg,,,,,,,,gradcpt,False,go,enter,1.0,700.0,21.5,img,True,,,,,,,
,,,,,image-keyboard-response,221,384430,13,1,,,,./img900_esterman_w/c3_c1.gif,,,,,,,,gradcpt,False,go,enter,1.0,700.0,22.0,transition,False,,,,,,,
,,,,,image-keyboard-response,222,385140,13,1,182.0,enter,,./img900_esterman_w/city_1.jpg,,,,,,,,gradcpt,False,go,enter,1.0,700.0,22.5,img,True,,,,,,,
,,,,,image-keyboard-response,223,385850,13,1,,,,./img900_esterman_w/c1_c5.gif,,,,,,,,gradcpt,False,go,enter,1.0,700.0,23.0,transition,False,,,,,,,
,,,,,image-keyboard-response,224,386557,13,1,62.0,enter,,./img900_esterman_w/city_5.jpg,,,,,,,,gradcpt,False,go,enter,1.0,700.0,23.5,img,True,,,,,,,
,,,,,image-keyboard-response,225,387268,13,1,,,,./img900_esterman_w/c5_c2.gif,,,,,,,,gradcpt,False,go,enter,1.0,700.0,24.0,transition,False,,,,,,,
,,,,,image-keyboard-response,226,387977,13,1,51.0,enter,,./img900_esterman_w/city_2.jpg,,,,,,,,gradcpt,False,go,enter,1.0,700.0,24.5,img,True,,,,,,,
,,,,,image-keyboard-response,227,388687,13,1,,,,./img900_esterman_w/c2_c3.gif,,,,,,,,gradcpt,False,go,enter,1.0,700.0,25.0,transition,False,,,,,,,
,,,,,image-keyboard-response,228,389394,13,1,133.0,enter,,./img900_esterman_w/city_3.jpg,,,,,,,,gradcpt,False,go,enter,1.0,700.0,25.5,img,True,,,,,,,
,,,,,image-keyboard-response,229,390102,13,1,,,,./img900_esterman_w/c3_c4.gif,,,,,,,,gradcpt,False,go,enter,1.0,700.0,26.0,transition,False,,,,,,,
,,,,,image-keyboard-response,230,390811,13,1,149.0,enter,,./img900_esterman_w/city_4.jpg,,,,,,,,gradcpt,False,go,enter,1.0,700.0,26.5,img,True,,,,,,,
,,,,,image-keyboard-response,231,391519,13,1,,,,./img900_esterman_w/c4_c6.gif,,,,,,,,gradcpt,False,go,enter,1.0,700.0,27.0,transition,False,,,,,,,
,,,,,image-keyboard-response,232,392228,13,1,182.0,enter,,./img900_esterman_w/city_6.jpg,,,,,,,,gradcpt,False,go,enter,1.0,700.0,27.5,img,True,,,,,,,
,,,,,image-keyboard-response,233,392937,13,1,,,,./img900_esterman_w/c6_m1.gif,,,,,,,,gradcpt,False,no-go,,1.0,700.0,28.0,transition,True,,,,,,,
,,,,,image-keyboard-response,234,393646,13,1,,,,./img900_esterman_w/mountain_1.jpg,,,,,,,,gradcpt,False,no-go,,1.0,700.0,28.5,img,True,,,,,,,
,,,,,image-keyboard-response,235,394354,13,1,,,,./img900_esterman_w/m1_c2.gif,,,,,,,,gradcpt,False,go,enter,1.0,700.0,29.0,transition,False,,,,,,,
,,,,,image-keyboard-response,236,395062,13,1,238.0,enter,,./img900_esterman_w/city_2.jpg,,,,,,,,gradcpt,False,go,enter,1.0,700.0,29.5,img,True,,,,,,,
,,,,,image-keyboard-response,237,395770,13,1,,,,./img900_esterman_w/c2_c5.gif,,,,,,,,gradcpt,False,go,enter,1.0,700.0,30.0,transition,False,,,,,,,
,,,,,image-keyboard-response,238,396477,13,1,203.0,enter,,./img900_esterman_w/city_5.jpg,,,,,,,,gradcpt,False,go,enter,1.0,700.0,30.5,img,True,,,,,,,
,,,,,image-keyboard-response,239,397186,13,1,,,,./img900_esterman_w/c5_c2.gif,,,,,,,,gradcpt,False,go,enter,1.0,700.0,31.0,transition,False,,,,,,,
,,,,,image-keyboard-response,240,397895,13,1,304.0,enter,,./img900_esterman_w/city_2.jpg,,,,,,,,gradcpt,False,go,enter,1.0,700.0,31.5,img,True,,,,,,,
,,,,,image-keyboard-response,241,398605,13,1,,,,./img900_esterman_w/c2_c4.gif,,,,,,,,gradcpt,False,go,enter,1.0,700.0,32.0,transition,False,,,,,,,
,,,,,image-keyboard-response,242,399312,13,1,55.0,enter,,./img900_esterman_w/city_4.jpg,,,,,,,,gradcpt,False,go,enter,1.0,700.0,32.5,img,True,,,,,,,
,,,,,image-keyboard-response,243,400021,13,1,,,,./img900_esterman_w/c4_c5.gif,,,,,,,,gradcpt,False,go,enter,1.0,700.0,33.0,transition,False,,,,,,,
,,,,,image-keyboard-response,244,400730,13,1,3.0,enter,,./img900_esterman_w/city_5.jpg,,,,,,,,gradcpt,False,go,enter,1.0,700.0,33.5,img,True,,,,,,,
,,,,,image-keyboard-response,245,401438,13,1,,,,./img900_esterman_w/c5_c1.gif,,,,,,,,gradcpt,False,go,enter,1.0,700.0,34.0,transition,False,,,,,,,
,,,,,image-keyboard-response,246,402144,13,1,39.0,enter,,./img900_esterman_w/city_1.jpg,,,,,,,,gradcpt,False,go,enter,1.0,700.0,34.5,img,True,,,,,,,
,,,,,image-keyboard-response,247,402852,13,1,,,,./img900_esterman_w/c1_c2.gif,,,,,,,,gradcpt,False,go,enter,1.0,700.0,35.0,transition,False,,,,,,,
,,,,,image-keyboard-response,248,403560,13,1,132.0,enter,,./img900_esterman_w/city_2.jpg,,,,,,,,gradcpt,False,go,enter,1.0,700.0,35.5,img,True,,,,,,,
,,,,,image-keyboard-response,249,404269,13,1,,,,./img900_esterman_w/c2_c6.gif,,,,,,,,gradcpt,False,go,enter,1.0,700.0,36.0,transition,False,,,,,,,
,,,,,image-keyboard-response,250,404978,13,1,190.0,enter,,./img900_esterman_w/city_6.jpg,,,,,,,,gradcpt,False,go,enter,1.0,700.0,36.5,img,True,,,,,,,
,,,,,image-keyboard-response,251,405687,13,1,,,,./img900_esterman_w/c6_c2.gif,,,,,,,,gradcpt,False,go,enter,1.0,700.0,37.0,transition,False,,,,,,,
,,,,,image-keyboard-response,252,406396,13,1,251.0,enter,,./img900_esterman_w/city_2.jpg,,,,,,,,gradcpt,False,go,enter,1.0,700.0,37.5,img,True,,,,,,,
,,,,,image-keyboard-response,253,407106,13,1,,,,./img900_esterman_w/c2_c6.gif,,,,,,,,gradcpt,False,go,enter,1.0,700.0,38.0,transition,False,,,,,,,
,,,,,image-keyboard-response,254,407815,13,1,268.0,enter,,./img900_esterman_w/city_6.jpg,,,,,,,,gradcpt,False,go,enter,1.0,700.0,38.5,img,True,,,,,,,
,,,,,image-keyboard-response,255,408523,13,1,,,,./img900_esterman_w/c6_c4.gif,,,,,,,,gradcpt,False,go,enter,1.0,700.0,39.0,transition,False,,,,,,,
,,,,,image-keyboard-response,256,409231,13,1,395.0,enter,,./img900_esterman_w/city_4.jpg,,,,,,,,gradcpt,False,go,enter,1.0,700.0,39.5,img,True,,,,,,,
,,,,,image-keyboard-response,257,409942,13,1,,,,./img900_esterman_w/c4_white1.gif,,,,,,,,gradcpt,False,filler,enter,1.0,700.0,3.0,transition,,,,,,,,
,,,,,survey-text,258,413641,13,1,3688.0,"{""bid"":""5""}",,,,,,,,,,,,,,,,,,,,84.0,2.0,gradcpt,False,,
,,,,,html-keyboard-response,259,414646,13,1,,,,You will now stay in the same game.,,,,,,,,,,,,,,,,,,,,,,,
,,,,,image-keyboard-response,260,415356,13,1,,,,./img900_esterman_w/white1_c6.gif,,,,,,,,gradcpt,False,go,enter,1.0,700.0,0.0,transition,False,,,,,,,
,,,,,image-keyboard-response,261,416061,13,1,691.0,enter,,./img900_esterman_w/city_6.jpg,,,,,,,,gradcpt,False,go,enter,1.0,700.0,0.5,img,True,,,,,,,
,,,,,image-keyboard-response,262,416769,13,1,,,,./img900_esterman_w/c6_c1.gif,,,,,,,,gradcpt,False,go,enter,1.0,700.0,1.0,transition,False,,,,,,,
,,,,,image-keyboard-response,263,417479,13,1,392.0,enter,,./img900_esterman_w/city_1.jpg,,,,,,,,gradcpt,False,go,enter,1.0,700.0,1.5,img,True,,,,,,,
,,,,,image-keyboard-response,264,418188,13,1,,,,./img900_esterman_w/c1_c3.gif,,,,,,,,gradcpt,False,go,enter,1.0,700.0,2.0,transition,False,,,,,,,
,,,,,image-keyboard-response,265,418898,13,1,201.0,enter,,./img900_esterman_w/city_3.jpg,,,,,,,,gradcpt,False,go,enter,1.0,700.0,2.5,img,True,,,,,,,
,,,,,image-keyboard-response,266,419608,13,1,,,,./img900_esterman_w/c3_c5.gif,,,,,,,,gradcpt,False,go,enter,1.0,700.0,3.0,transition,False,,,,,,,
,,,,,image-keyboard-response,267,420318,13,1,421.0,enter,,./img900_esterman_w/city_5.jpg,,,,,,,,gradcpt,False,go,enter,1.0,700.0,3.5,img,True,,,,,,,
,,,,,image-keyboard-response,268,421025,13,1,,,,./img900_esterman_w/c5_c1.gif,,,,,,,,gradcpt,False,go,enter,1.0,700.0,4.0,transition,False,,,,,,,
,,,,,image-keyboard-response,269,421735,13,1,365.0,enter,,./img900_esterman_w/city_1.jpg,,,,,,,,gradcpt,False,go,enter,1.0,700.0,4.5,img,True,,,,,,,
,,,,,image-keyboard-response,270,422440,13,1,,,,./img900_esterman_w/c1_c5.gif,,,,,,,,gradcpt,False,go,enter,1.0,700.0,5.0,transition,False,,,,,,,
,,,,,image-keyboard-response,271,423150,13,1,377.0,enter,,./img900_esterman_w/city_5.jpg,,,,,,,,gradcpt,False,go,enter,1.0,700.0,5.5,img,True,,,,,,,
,,,,,image-keyboard-response,272,423861,13,1,,,,./img900_esterman_w/c5_c6.gif,,,,,,,,gradcpt,False,go,enter,1.0,700.0,6.0,transition,False,,,,,,,
,,,,,image-keyboard-response,273,424570,13,1,85.0,enter,,./img900_esterman_w/city_6.jpg,,,,,,,,gradcpt,False,go,enter,1.0,700.0,6.5,img,True,,,,,,,
,,,,,image-keyboard-response,274,425278,13,1,,,,./img900_esterman_w/c6_c1.gif,,,,,,,,gradcpt,False,go,enter,1.0,700.0,7.0,transition,False,,,,,,,
,,,,,image-keyboard-response,275,425988,13,1,367.0,enter,,./img900_esterman_w/city_1.jpg,,,,,,,,gradcpt,False,go,enter,1.0,700.0,7.5,img,True,,,,,,,
,,,,,image-keyboard-response,276,426697,13,1,,,,./img900_esterman_w/c1_c3.gif,,,,,,,,gradcpt,False,go,enter,1.0,700.0,8.0,transition,False,,,,,,,
,,,,,image-keyboard-response,277,427406,13,1,478.0,enter,,./img900_esterman_w/city_3.jpg,,,,,,,,gradcpt,False,go,enter,1.0,700.0,8.5,img,True,,,,,,,
,,,,,image-keyboard-response,278,428115,13,1,,,,./img900_esterman_w/c3_c5.gif,,,,,,,,gradcpt,False,go,enter,1.0,700.0,9.0,transition,False,,,,,,,
,,,,,image-keyboard-response,279,428826,13,1,208.0,enter,,./img900_esterman_w/city_5.jpg,,,,,,,,gradcpt,False,go,enter,1.0,700.0,9.5,img,True,,,,,,,
,,,,,image-keyboard-response,280,429537,13,1,,,,./img900_esterman_w/c5_c6.gif,,,,,,,,gradcpt,False,go,enter,1.0,700.0,10.0,transition,False,,,,,,,
,,,,,image-keyboard-response,281,430248,13,1,124.0,enter,,./img900_esterman_w/city_6.jpg,,,,,,,,gradcpt,False,go,enter,1.0,700.0,10.5,img,True,,,,,,,
,,,,,image-keyboard-response,282,430959,13,1,,,,./img900_esterman_w/c6_c4.gif,,,,,,,,gradcpt,False,go,enter,1.0,700.0,11.0,transition,False,,,,,,,
,,,,,image-keyboard-response,283,431670,13,1,104.0,enter,,./img900_esterman_w/city_4.jpg,,,,,,,,gradcpt,False,go,enter,1.0,700.0,11.5,img,True,,,,,,,
,,,,,image-keyboard-response,284,432378,13,1,,,,./img900_esterman_w/c4_c1.gif,,,,,,,,gradcpt,False,go,enter,1.0,700.0,12.0,transition,False,,,,,,,
,,,,,image-keyboard-response,285,433088,13,1,188.0,enter,,./img900_esterman_w/city_1.jpg,,,,,,,,gradcpt,False,go,enter,1.0,700.0,12.5,img,True,,,,,,,
,,,,,image-keyboard-response,286,433797,13,1,,,,./img900_esterman_w/c1_c2.gif,,,,,,,,gradcpt,False,go,enter,1.0,700.0,13.0,transition,False,,,,,,,
,,,,,image-keyboard-response,287,434507,13,1,489.0,enter,,./img900_esterman_w/city_2.jpg,,,,,,,,gradcpt,False,go,enter,1.0,700.0,13.5,img,True,,,,,,,
,,,,,image-keyboard-response,288,435218,13,1,,,,./img900_esterman_w/c2_c4.gif,,,,,,,,gradcpt,False,go,enter,1.0,700.0,14.0,transition,False,,,,,,,
,,,,,image-keyboard-response,289,435928,13,1,212.0,enter,,./img900_esterman_w/city_4.jpg,,,,,,,,gradcpt,False,go,enter,1.0,700.0,14.5,img,True,,,,,,,
,,,,,image-keyboard-response,290,436637,13,1,,,,./img900_esterman_w/c4_c3.gif,,,,,,,,gradcpt,False,go,enter,1.0,700.0,15.0,transition,False,,,,,,,
,,,,,image-keyboard-response,291,437346,13,1,108.0,enter,,./img900_esterman_w/city_3.jpg,,,,,,,,gradcpt,False,go,enter,1.0,700.0,15.5,img,True,,,,,,,
,,,,,image-keyboard-response,292,438056,13,1,,,,./img900_esterman_w/c3_c5.gif,,,,,,,,gradcpt,False,go,enter,1.0,700.0,16.0,transition,False,,,,,,,
,,,,,image-keyboard-response,293,438763,13,1,370.0,enter,,./img900_esterman_w/city_5.jpg,,,,,,,,gradcpt,False,go,enter,1.0,700.0,16.5,img,True,,,,,,,
,,,,,image-keyboard-response,294,439472,13,1,,,,./img900_esterman_w/c5_c4.gif,,,,,,,,gradcpt,False,go,enter,1.0,700.0,17.0,transition,False,,,,,,,
,,,,,image-keyboard-response,295,440180,13,1,196.0,enter,,./img900_esterman_w/city_4.jpg,,,,,,,,gradcpt,False,go,enter,1.0,700.0,17.5,img,True,,,,,,,
,,,,,image-keyboard-response,296,440890,13,1,,,,./img900_esterman_w/c4_c3.gif,,,,,,,,gradcpt,False,go,enter,1.0,700.0,18.0,transition,False,,,,,,,
,,,,,image-keyboard-response,297,441601,13,1,246.0,enter,,./img900_esterman_w/city_3.jpg,,,,,,,,gradcpt,False,go,enter,1.0,700.0,18.5,img,True,,,,,,,
,,,,,image-keyboard-response,298,442312,13,1,,,,./img900_esterman_w/c3_c2.gif,,,,,,,,gradcpt,False,go,enter,1.0,700.0,19.0,transition,False,,,,,,,
,,,,,image-keyboard-response,299,443023,13,1,312.0,enter,,./img900_esterman_w/city_2.jpg,,,,,,,,gradcpt,False,go,enter,1.0,700.0,19.5,img,True,,,,,,,
,,,,,image-keyboard-response,300,443733,13,1,,,,./img900_esterman_w/c2_c6.gif,,,,,,,,gradcpt,False,go,enter,1.0,700.0,20.0,transition,False,,,,,,,
,,,,,image-keyboard-response,301,444441,13,1,139.0,enter,,./img900_esterman_w/city_6.jpg,,,,,,,,gradcpt,False,go,enter,1.0,700.0,20.5,img,True,,,,,,,
,,,,,image-keyboard-response,302,445153,13,1,,,,./img900_esterman_w/c6_c3.gif,,,,,,,,gradcpt,False,go,enter,1.0,700.0,21.0,transition,False,,,,,,,
,,,,,image-keyboard-response,303,445863,13,1,361.0,enter,,./img900_esterman_w/city_3.jpg,,,,,,,,gradcpt,False,go,enter,1.0,700.0,21.5,img,True,,,,,,,
,,,,,image-keyboard-response,304,446571,13,1,,,,./img900_esterman_w/c3_c1.gif,,,,,,,,gradcpt,False,go,enter,1.0,700.0,22.0,transition,False,,,,,,,
,,,,,image-keyboard-response,305,447281,13,1,275.0,enter,,./img900_esterman_w/city_1.jpg,,,,,,,,gradcpt,False,go,enter,1.0,700.0,22.5,img,True,,,,,,,
,,,,,image-keyboard-response,306,447989,13,1,,,,./img900_esterman_w/c1_c5.gif,,,,,,,,gradcpt,False,go,enter,1.0,700.0,23.0,transition,False,,,,,,,
,,,,,image-keyboard-response,307,448699,13,1,352.0,enter,,./img900_esterman_w/city_5.jpg,,,,,,,,gradcpt,False,go,enter,1.0,700.0,23.5,img,True,,,,,,,
,,,,,image-keyboard-response,308,449411,13,1,,,,./img900_esterman_w/c5_c2.gif,,,,,,,,gradcpt,False,go,enter,1.0,700.0,24.0,transition,False,,,,,,,
,,,,,image-keyboard-response,309,450121,13,1,330.0,enter,,./img900_esterman_w/city_2.jpg,,,,,,,,gradcpt,False,go,enter,1.0,700.0,24.5,img,True,,,,,,,
,,,,,image-keyboard-response,310,450830,13,1,,,,./img900_esterman_w/c2_c3.gif,,,,,,,,gradcpt,False,go,enter,1.0,700.0,25.0,transition,False,,,,,,,
,,,,,image-keyboard-response,311,451540,13,1,221.0,enter,,./img900_esterman_w/city_3.jpg,,,,,,,,gradcpt,False,go,enter,1.0,700.0,25.5,img,True,,,,,,,
,,,,,image-keyboard-response,312,452251,13,1,,,,./img900_esterman_w/c3_c4.gif,,,,,,,,gradcpt,False,go,enter,1.0,700.0,26.0,transition,False,,,,,,,
,,,,,image-keyboard-response,313,452962,13,1,503.0,enter,,./img900_esterman_w/city_4.jpg,,,,,,,,gradcpt,False,go,enter,1.0,700.0,26.5,img,True,,,,,,,
,,,,,image-keyboard-response,314,453673,13,1,,,,./img900_esterman_w/c4_c6.gif,,,,,,,,gradcpt,False,go,enter,1.0,700.0,27.0,transition,False,,,,,,,
,,,,,image-keyboard-response,315,454383,13,1,159.0,enter,,./img900_esterman_w/city_6.jpg,,,,,,,,gradcpt,False,go,enter,1.0,700.0,27.5,img,True,,,,,,,
,,,,,image-keyboard-response,316,455091,13,1,,,,./img900_esterman_w/c6_m1.gif,,,,,,,,gradcpt,False,no-go,,1.0,700.0,28.0,transition,True,,,,,,,
,,,,,image-keyboard-response,317,455803,13,1,,,,./img900_esterman_w/mountain_1.jpg,,,,,,,,gradcpt,False,no-go,,1.0,700.0,28.5,img,True,,,,,,,
,,,,,image-keyboard-response,318,456515,13,1,,,,./img900_esterman_w/m1_c2.gif,,,,,,,,gradcpt,False,go,enter,1.0,700.0,29.0,transition,False,,,,,,,
,,,,,image-keyboard-response,319,457225,13,1,341.0,enter,,./img900_esterman_w/city_2.jpg,,,,,,,,gradcpt,False,go,enter,1.0,700.0,29.5,img,True,,,,,,,
,,,,,image-keyboard-response,320,457937,13,1,,,,./img900_esterman_w/c2_c5.gif,,,,,,,,gradcpt,False,go,enter,1.0,700.0,30.0,transition,False,,,,,,,
,,,,,image-keyboard-response,321,458648,13,1,332.0,enter,,./img900_esterman_w/city_5.jpg,,,,,,,,gradcpt,False,go,enter,1.0,700.0,30.5,img,True,,,,,,,
,,,,,image-keyboard-response,322,459358,13,1,,,,./img900_esterman_w/c5_c2.gif,,,,,,,,gradcpt,False,go,enter,1.0,700.0,31.0,transition,False,,,,,,,
,,,,,image-keyboard-response,323,460070,13,1,65.0,enter,,./img900_esterman_w/city_2.jpg,,,,,,,,gradcpt,False,go,enter,1.0,700.0,31.5,img,True,,,,,,,
,,,,,image-keyboard-response,324,460781,13,1,674.0,enter,,./img900_esterman_w/c2_c4.gif,,,,,,,,gradcpt,False,go,enter,1.0,700.0,32.0,transition,True,,,,,,,
,,,,,image-keyboard-response,325,461491,13,1,,,,./img900_esterman_w/city_4.jpg,,,,,,,,gradcpt,False,go,enter,1.0,700.0,32.5,img,True,,,,,,,
,,,,,image-keyboard-response,326,462202,13,1,623.0,enter,,./img900_esterman_w/c4_c5.gif,,,,,,,,gradcpt,False,go,enter,1.0,700.0,33.0,transition,True,,,,,,,
,,,,,image-keyboard-response,327,462912,13,1,,,,./img900_esterman_w/city_5.jpg,,,,,,,,gradcpt,False,go,enter,1.0,700.0,33.5,img,True,,,,,,,
,,,,,image-keyboard-response,328,463623,13,1,,,,./img900_esterman_w/c5_c1.gif,,,,,,,,gradcpt,False,go,enter,1.0,700.0,34.0,transition,False,,,,,,,
,,,,,image-keyboard-response,329,464333,13,1,209.0,enter,,./img900_esterman_w/city_1.jpg,,,,,,,,gradcpt,False,go,enter,1.0,700.0,34.5,img,True,,,,,,,
,,,,,image-keyboard-response,330,465046,13,1,525.0,enter,,./img900_esterman_w/c1_c2.gif,,,,,,,,gradcpt,False,go,enter,1.0,700.0,35.0,transition,True,,,,,,,
,,,,,image-keyboard-response,331,465757,13,1,,,,./img900_esterman_w/city_2.jpg,,,,,,,,gradcpt,False,go,enter,1.0,700.0,35.5,img,True,,,,,,,
,,,,,image-keyboard-response,332,466467,13,1,,,,./img900_esterman_w/c2_c6.gif,,,,,,,,gradcpt,False,go,enter,1.0,700.0,36.0,transition,False,,,,,,,
,,,,,image-keyboard-response,333,467175,13,1,35.0,enter,,./img900_esterman_w/city_6.jpg,,,,,,,,gradcpt,False,go,enter,1.0,700.0,36.5,img,True,,,,,,,
,,,,,image-keyboard-response,334,467886,13,1,,,,./img900_esterman_w/c6_c2.gif,,,,,,,,gradcpt,False,go,enter,1.0,700.0,37.0,transition,False,,,,,,,
,,,,,image-keyboard-response,335,468597,13,1,219.0,enter,,./img900_esterman_w/city_2.jpg,,,,,,,,gradcpt,False,go,enter,1.0,700.0,37.5,img,True,,,,,,,
,,,,,image-keyboard-response,336,469310,13,1,,,,./img900_esterman_w/c2_c6.gif,,,,,,,,gradcpt,False,go,enter,1.0,700.0,38.0,transition,False,,,,,,,
,,,,,image-keyboard-response,337,470021,13,1,357.0,enter,,./img900_esterman_w/city_6.jpg,,,,,,,,gradcpt,False,go,enter,1.0,700.0,38.5,img,True,,,,,,,
,,,,,image-keyboard-response,338,470733,13,1,,,,./img900_esterman_w/c6_c4.gif,,,,,,,,gradcpt,False,go,enter,1.0,700.0,39.0,transition,False,,,,,,,
,,,,,image-keyboard-response,339,471444,13,1,313.0,enter,,./img900_esterman_w/city_4.jpg,,,,,,,,gradcpt,False,go,enter,1.0,700.0,39.5,img,True,,,,,,,
,,,,,image-keyboard-response,340,472155,13,1,,,,./img900_esterman_w/c4_white1.gif,,,,,,,,gradcpt,False,filler,enter,1.0,700.0,3.0,transition,,,,,,,,
,,,,,survey-text,341,498536,13,1,26369.0,"{""bid"":""30""}",,,,,,,,,,,,,,,,,,,,87.0,3.0,gradcpt,False,,
,,,,,html-keyboard-response,342,499543,13,1,,,,You will now stay in the same game.,,,,,,,,,,,,,,,,,,,,,,,
,,,,,image-keyboard-response,343,500257,13,1,,,,./img900_esterman_w/white1_c6.gif,,,,,,,,gradcpt,False,go,enter,1.0,700.0,0.0,transition,False,,,,,,,
,,,,,image-keyboard-response,344,500963,13,1,414.0,enter,,./img900_esterman_w/city_6.jpg,,,,,,,,gradcpt,False,go,enter,1.0,700.0,0.5,img,True,,,,,,,
,,,,,image-keyboard-response,345,501675,13,1,,,,./img900_esterman_w/c6_c1.gif,,,,,,,,gradcpt,False,go,enter,1.0,700.0,1.0,transition,False,,,,,,,
,,,,,image-keyboard-response,346,502387,13,1,433.0,enter,,./img900_esterman_w/city_1.jpg,,,,,,,,gradcpt,False,go,enter,1.0,700.0,1.5,img,True,,,,,,,
,,,,,image-keyboard-response,347,503098,13,1,,,,./img900_esterman_w/c1_c3.gif,,,,,,,,gradcpt,False,go,enter,1.0,700.0,2.0,transition,False,,,,,,,
,,,,,image-keyboard-response,348,503806,13,1,258.0,enter,,./img900_esterman_w/city_3.jpg,,,,,,,,gradcpt,False,go,enter,1.0,700.0,2.5,img,True,,,,,,,
,,,,,image-keyboard-response,349,504517,13,1,,,,./img900_esterman_w/c3_c5.gif,,,,,,,,gradcpt,False,go,enter,1.0,700.0,3.0,transition,False,,,,,,,
,,,,,image-keyboard-response,350,505228,13,1,192.0,enter,,./img900_esterman_w/city_5.jpg,,,,,,,,gradcpt,False,go,enter,1.0,700.0,3.5,img,True,,,,,,,
,,,,,image-keyboard-response,351,505941,13,1,,,,./img900_esterman_w/c5_c1.gif,,,,,,,,gradcpt,False,go,enter,1.0,700.0,4.0,transition,False,,,,,,,
,,,,,image-keyboard-response,352,506652,13,1,3.0,enter,,./img900_esterman_w/city_1.jpg,,,,,,,,gradcpt,False,go,enter,1.0,700.0,4.5,img,True,,,,,,,
,,,,,image-keyboard-response,353,507366,13,1,702.0,enter,,./img900_esterman_w/c1_c5.gif,,,,,,,,gradcpt,False,go,enter,1.0,700.0,5.0,transition,True,,,,,,,
,,,,,image-keyboard-response,354,508076,13,1,,,,./img900_esterman_w/city_5.jpg,,,,,,,,gradcpt,False,go,enter,1.0,700.0,5.5,img,True,,,,,,,
,,,,,image-keyboard-response,355,508787,13,1,695.0,enter,,./img900_esterman_w/c5_c6.gif,,,,,,,,gradcpt,False,go,enter,1.0,700.0,6.0,transition,True,,,,,,,
,,,,,image-keyboard-response,356,509500,13,1,,,,./img900_esterman_w/city_6.jpg,,,,,,,,gradcpt,False,go,enter,1.0,700.0,6.5,img,True,,,,,,,
,,,,,image-keyboard-response,357,510213,13,1,,,,./img900_esterman_w/c6_c1.gif,,,,,,,,gradcpt,False,go,enter,1.0,700.0,7.0,transition,False,,,,,,,
,,,,,image-keyboard-response,358,510926,13,1,43.0,enter,,./img900_esterman_w/city_1.jpg,,,,,,,,gradcpt,False,go,enter,1.0,700.0,7.5,img,True,,,,,,,
,,,,,image-keyboard-response,359,511639,13,1,,,,./img900_esterman_w/c1_c3.gif,,,,,,,,gradcpt,False,go,enter,1.0,700.0,8.0,transition,False,,,,,,,
,,,,,image-keyboard-response,360,512351,13,1,93.0,enter,,./img900_esterman_w/city_3.jpg,,,,,,,,gradcpt,False,go,enter,1.0,700.0,8.5,img,True,,,,,,,
,,,,,image-keyboard-response,361,513063,13,1,,,,./img900_esterman_w/c3_c5.gif,,,,,,,,gradcpt,False,go,enter,1.0,700.0,9.0,transition,False,,,,,,,
,,,,,image-keyboard-response,362,513774,13,1,123.0,enter,,./img900_esterman_w/city_5.jpg,,,,,,,,gradcpt,False,go,enter,1.0,700.0,9.5,img,True,,,,,,,
,,,,,image-keyboard-response,363,514487,13,1,,,,./img900_esterman_w/c5_c6.gif,,,,,,,,gradcpt,False,go,enter,1.0,700.0,10.0,transition,False,,,,,,,
,,,,,image-keyboard-response,364,515198,13,1,319.0,enter,,./img900_esterman_w/city_6.jpg,,,,,,,,gradcpt,False,go,enter,1.0,700.0,10.5,img,True,,,,,,,
,,,,,image-keyboard-response,365,515905,13,1,,,,./img900_esterman_w/c6_c4.gif,,,,,,,,gradcpt,False,go,enter,1.0,700.0,11.0,transition,False,,,,,,,
,,,,,image-keyboard-response,366,516616,13,1,320.0,enter,,./img900_esterman_w/city_4.jpg,,,,,,,,gradcpt,False,go,enter,1.0,700.0,11.5,img,True,,,,,,,
,,,,,image-keyboard-response,367,517329,13,1,,,,./img900_esterman_w/c4_c1.gif,,,,,,,,gradcpt,False,go,enter,1.0,700.0,12.0,transition,False,,,,,,,
,,,,,image-keyboard-response,368,518053,13,1,219.0,enter,,./img900_esterman_w/city_1.jpg,,,,,,,,gradcpt,False,go,enter,1.0,700.0,12.5,img,True,,,,,,,
,,,,,image-keyboard-response,369,518765,13,1,,,,./img900_esterman_w/c1_c2.gif,,,,,,,,gradcpt,False,go,enter,1.0,700.0,13.0,transition,False,,,,,,,
,,,,,image-keyboard-response,370,519477,13,1,429.0,enter,,./img900_esterman_w/city_2.jpg,,,,,,,,gradcpt,False,go,enter,1.0,700.0,13.5,img,True,,,,,,,
,,,,,image-keyboard-response,371,520188,13,1,,,,./img900_esterman_w/c2_c4.gif,,,,,,,,gradcpt,False,go,enter,1.0,700.0,14.0,transition,False,,,,,,,
,,,,,image-keyboard-response,372,520899,13,1,180.0,enter,,./img900_esterman_w/city_4.jpg,,,,,,,,gradcpt,False,go,enter,1.0,700.0,14.5,img,True,,,,,,,
,,,,,image-keyboard-response,373,521614,13,1,,,,./img900_esterman_w/c4_c3.gif,,,,,,,,gradcpt,False,go,enter,1.0,700.0,15.0,transition,False,,,,,,,
,,,,,image-keyboard-response,374,522325,13,1,117.0,enter,,./img900_esterman_w/city_3.jpg,,,,,,,,gradcpt,False,go,enter,1.0,700.0,15.5,img,True,,,,,,,
,,,,,image-keyboard-response,375,523039,13,1,,,,./img900_esterman_w/c3_c5.gif,,,,,,,,gradcpt,False,go,enter,1.0,700.0,16.0,transition,False,,,,,,,
,,,,,image-keyboard-response,376,523751,13,1,365.0,enter,,./img900_esterman_w/city_5.jpg,,,,,,,,gradcpt,False,go,enter,1.0,700.0,16.5,img,True,,,,,,,
,,,,,image-keyboard-response,377,524464,13,1,,,,./img900_esterman_w/c5_c4.gif,,,,,,,,gradcpt,False,go,enter,1.0,700.0,17.0,transition,False,,,,,,,
,,,,,image-keyboard-response,378,525177,13,1,90.0,enter,,./img900_esterman_w/city_4.jpg,,,,,,,,gradcpt,False,go,enter,1.0,700.0,17.5,img,True,,,,,,,
,,,,,image-keyboard-response,379,525888,13,1,,,,./img900_esterman_w/c4_c3.gif,,,,,,,,gradcpt,False,go,enter,1.0,700.0,18.0,transition,False,,,,,,,
,,,,,image-keyboard-response,380,526600,13,1,60.0,enter,,./img900_esterman_w/city_3.jpg,,,,,,,,gradcpt,False,go,enter,1.0,700.0,18.5,img,True,,,,,,,
,,,,,image-keyboard-response,381,527314,13,1,,,,./img900_esterman_w/c3_c2.gif,,,,,,,,gradcpt,False,go,enter,1.0,700.0,19.0,transition,False,,,,,,,
,,,,,image-keyboard-response,382,528025,13,1,252.0,enter,,./img900_esterman_w/city_2.jpg,,,,,,,,gradcpt,False,go,enter,1.0,700.0,19.5,img,True,,,,,,,
,,,,,image-keyboard-response,383,528738,13,1,,,,./img900_esterman_w/c2_c6.gif,,,,,,,,gradcpt,False,go,enter,1.0,700.0,20.0,transition,False,,,,,,,
,,,,,image-keyboard-response,384,529450,13,1,8.0,enter,,./img900_esterman_w/city_6.jpg,,,,,,,,gradcpt,False,go,enter,1.0,700.0,20.5,img,True,,,,,,,
,,,,,image-keyboard-response,385,530162,13,1,,,,./img900_esterman_w/c6_c3.gif,,,,,,,,gradcpt,False,go,enter,1.0,700.0,21.0,transition,False,,,,,,,
,,,,,image-keyboard-response,386,530875,13,1,216.0,enter,,./img900_esterman_w/city_3.jpg,,,,,,,,gradcpt,False,go,enter,1.0,700.0,21.5,img,True,,,,,,,
,,,,,image-keyboard-response,387,531588,13,1,,,,./img900_esterman_w/c3_c1.gif,,,,,,,,gradcpt,False,go,enter,1.0,700.0,22.0,transition,False,,,,,,,
,,,,,image-keyboard-response,388,532300,13,1,226.0,enter,,./img900_esterman_w/city_1.jpg,,,,,,,,gradcpt,False,go,enter,1.0,700.0,22.5,img,True,,,,,,,
,,,,,image-keyboard-response,389,533013,13,1,,,,./img900_esterman_w/c1_c5.gif,,,,,,,,gradcpt,False,go,enter,1.0,700.0,23.0,transition,False,,,,,,,
,,,,,image-keyboard-response,390,533726,13,1,,,,./img900_esterman_w/city_5.jpg,,,,,,,,gradcpt,False,go,enter,1.0,700.0,23.5,img,False,,,,,,,
,,,,,image-keyboard-response,391,534440,13,1,104.0,enter,,./img900_esterman_w/c5_c2.gif,,,,,,,,gradcpt,False,go,enter,1.0,700.0,24.0,transition,True,,,,,,,
,,,,,image-keyboard-response,392,535153,13,1,306.0,enter,,./img900_esterman_w/city_2.jpg,,,,,,,,gradcpt,False,go,enter,1.0,700.0,24.5,img,True,,,,,,,
,,,,,image-keyboard-response,393,535867,13,1,,,,./img900_esterman_w/c2_c3.gif,,,,,,,,gradcpt,False,go,enter,1.0,700.0,25.0,transition,False,,,,,,,
,,,,,image-keyboard-response,394,536580,13,1,236.0,enter,,./img900_esterman_w/city_3.jpg,,,,,,,,gradcpt,False,go,enter,1.0,700.0,25.5,img,True,,,,,,,
,,,,,image-keyboard-response,395,537293,13,1,,,,./img900_esterman_w/c3_c4.gif,,,,,,,,gradcpt,False,go,enter,1.0,700.0,26.0,transition,False,,,,,,,
,,,,,image-keyboard-response,396,538006,13,1,242.0,enter,,./img900_esterman_w/city_4.jpg,,,,,,,,gradcpt,False,go,enter,1.0,700.0,26.5,img,True,,,,,,,
,,,,,image-keyboard-response,397,538717,13,1,,,,./img900_esterman_w/c4_c6.gif,,,,,,,,gradcpt,False,go,enter,1.0,700.0,27.0,transition,False,,,,,,,
,,,,,image-keyboard-response,398,539430,13,1,209.0,enter,,./img900_esterman_w/city_6.jpg,,,,,,,,gradcpt,False,go,enter,1.0,700.0,27.5,img,True,,,,,,,
,,,,,image-keyboard-response,399,540137,13,1,,,,./img900_esterman_w/c6_m1.gif,,,,,,,,gradcpt,False,no-go,,1.0,700.0,28.0,transition,True,,,,,,,
,,,,,image-keyboard-response,400,540844,13,1,135.0,enter,,./img900_esterman_w/mountain_1.jpg,,,,,,,,gradcpt,False,no-go,,1.0,700.0,28.5,img,False,,,,,,,
,,,,,image-keyboard-response,401,541558,13,1,,,,./img900_esterman_w/m1_c2.gif,,,,,,,,gradcpt,False,go,enter,1.0,700.0,29.0,transition,False,,,,,,,
,,,,,image-keyboard-response,402,542271,13,1,116.0,enter,,./img900_esterman_w/city_2.jpg,,,,,,,,gradcpt,False,go,enter,1.0,700.0,29.5,img,True,,,,,,,
,,,,,image-keyboard-response,403,542985,13,1,,,,./img900_esterman_w/c2_c5.gif,,,,,,,,gradcpt,False,go,enter,1.0,700.0,30.0,transition,False,,,,,,,
,,,,,image-keyboard-response,404,543696,13,1,72.0,enter,,./img900_esterman_w/city_5.jpg,,,,,,,,gradcpt,False,go,enter,1.0,700.0,30.5,img,True,,,,,,,
,,,,,image-keyboard-response,405,544403,13,1,,,,./img900_esterman_w/c5_c2.gif,,,,,,,,gradcpt,False,go,enter,1.0,700.0,31.0,transition,False,,,,,,,
,,,,,image-keyboard-response,406,545115,13,1,212.0,enter,,./img900_esterman_w/city_2.jpg,,,,,,,,gradcpt,False,go,enter,1.0,700.0,31.5,img,True,,,,,,,
,,,,,image-keyboard-response,407,545829,13,1,,,,./img900_esterman_w/c2_c4.gif,,,,,,,,gradcpt,False,go,enter,1.0,700.0,32.0,transition,False,,,,,,,
,,,,,image-keyboard-response,408,546542,13,1,64.0,enter,,./img900_esterman_w/city_4.jpg,,,,,,,,gradcpt,False,go,enter,1.0,700.0,32.5,img,True,,,,,,,
,,,,,image-keyboard-response,409,547254,13,1,,,,./img900_esterman_w/c4_c5.gif,,,,,,,,gradcpt,False,go,enter,1.0,700.0,33.0,transition,False,,,,,,,
,,,,,image-keyboard-response,410,547965,13,1,21.0,enter,,./img900_esterman_w/city_5.jpg,,,,,,,,gradcpt,False,go,enter,1.0,700.0,33.5,img,True,,,,,,,
,,,,,image-keyboard-response,411,548679,13,1,,,,./img900_esterman_w/c5_c1.gif,,,,,,,,gradcpt,False,go,enter,1.0,700.0,34.0,transition,False,,,,,,,
,,,,,image-keyboard-response,412,549391,13,1,0.0,enter,,./img900_esterman_w/city_1.jpg,,,,,,,,gradcpt,False,go,enter,1.0,700.0,34.5,img,True,,,,,,,
,,,,,image-keyboard-response,413,550105,13,1,,,,./img900_esterman_w/c1_c2.gif,,,,,,,,gradcpt,False,go,enter,1.0,700.0,35.0,transition,False,,,,,,,
,,,,,image-keyboard-response,414,550818,13,1,15.0,enter,,./img900_esterman_w/city_2.jpg,,,,,,,,gradcpt,False,go,enter,1.0,700.0,35.5,img,True,,,,,,,
,,,,,image-keyboard-response,415,551531,13,1,,,,./img900_esterman_w/c2_c6.gif,,,,,,,,gradcpt,False,go,enter,1.0,700.0,36.0,transition,False,,,,,,,
,,,,,image-keyboard-response,416,552244,13,1,105.0,enter,,./img900_esterman_w/city_6.jpg,,,,,,,,gradcpt,False,go,enter,1.0,700.0,36.5,img,True,,,,,,,
,,,,,image-keyboard-response,417,552957,13,1,,,,./img900_esterman_w/c6_c2.gif,,,,,,,,gradcpt,False,go,enter,1.0,700.0,37.0,transition,False,,,,,,,
,,,,,image-keyboard-response,418,553669,13,1,155.0,enter,,./img900_esterman_w/city_2.jpg,,,,,,,,gradcpt,False,go,enter,1.0,700.0,37.5,img,True,,,,,,,
,,,,,image-keyboard-response,419,554382,13,1,,,,./img900_esterman_w/c2_c6.gif,,,,,,,,gradcpt,False,go,enter,1.0,700.0,38.0,transition,False,,,,,,,
,,,,,image-keyboard-response,420,555094,13,1,14.0,enter,,./img900_esterman_w/city_6.jpg,,,,,,,,gradcpt,False,go,enter,1.0,700.0,38.5,img,True,,,,,,,
,,,,,image-keyboard-response,421,555807,13,1,627.0,enter,,./img900_esterman_w/c6_c4.gif,,,,,,,,gradcpt,False,go,enter,1.0,700.0,39.0,transition,True,,,,,,,
,,,,,image-keyboard-response,422,556514,13,1,,,,./img900_esterman_w/city_4.jpg,,,,,,,,gradcpt,False,go,enter,1.0,700.0,39.5,img,True,,,,,,,
,,,,,image-keyboard-response,423,557228,13,1,,,,./img900_esterman_w/c4_white1.gif,,,,,,,,gradcpt,False,filler,enter,1.0,700.0,3.0,transition,,,,,,,,
,,,,,survey-text,424,560357,13,1,3117.0,"{""bid"":""25""}",,,,,,,,,,,,,,,,,,,,44.0,4.0,gradcpt,False,,
,,,,,html-keyboard-response,425,561366,13,1,,,,You will now stay in the same game.,,,,,,,,,,,,,,,,,,,,,,,
,,,,,image-keyboard-response,426,562080,13,1,647.0,enter,,./img900_esterman_w/white1_c6.gif,,,,,,,,gradcpt,False,go,enter,1.0,700.0,0.0,transition,True,,,,,,,
,,,,,image-keyboard-response,427,562792,13,1,,,,./img900_esterman_w/city_6.jpg,,,,,,,,gradcpt,False,go,enter,1.0,700.0,0.5,img,True,,,,,,,
,,,,,image-keyboard-response,428,563506,13,1,,,,./img900_esterman_w/c6_c1.gif,,,,,,,,gradcpt,False,go,enter,1.0,700.0,1.0,transition,False,,,,,,,
,,,,,image-keyboard-response,429,564219,13,1,167.0,enter,,./img900_esterman_w/city_1.jpg,,,,,,,,gradcpt,False,go,enter,1.0,700.0,1.5,img,True,,,,,,,
,,,,,image-keyboard-response,430,564932,13,1,,,,./img900_esterman_w/c1_c3.gif,,,,,,,,gradcpt,False,go,enter,1.0,700.0,2.0,transition,False,,,,,,,
,,,,,image-keyboard-response,431,565644,13,1,133.0,enter,,./img900_esterman_w/city_3.jpg,,,,,,,,gradcpt,False,go,enter,1.0,700.0,2.5,img,True,,,,,,,
,,,,,image-keyboard-response,432,566357,13,1,,,,./img900_esterman_w/c3_c5.gif,,,,,,,,gradcpt,False,go,enter,1.0,700.0,3.0,transition,False,,,,,,,
,,,,,image-keyboard-response,433,567070,13,1,292.0,enter,,./img900_esterman_w/city_5.jpg,,,,,,,,gradcpt,False,go,enter,1.0,700.0,3.5,img,True,,,,,,,
,,,,,image-keyboard-response,434,567784,13,1,,,,./img900_esterman_w/c5_c1.gif,,,,,,,,gradcpt,False,go,enter,1.0,700.0,4.0,transition,False,,,,,,,
,,,,,image-keyboard-response,435,568497,13,1,52.0,enter,,./img900_esterman_w/city_1.jpg,,,,,,,,gradcpt,False,go,enter,1.0,700.0,4.5,img,True,,,,,,,
,,,,,image-keyboard-response,436,569209,13,1,,,,./img900_esterman_w/c1_c5.gif,,,,,,,,gradcpt,False,go,enter,1.0,700.0,5.0,transition,False,,,,,,,
,,,,,image-keyboard-response,437,569917,13,1,347.0,enter,,./img900_esterman_w/city_5.jpg,,,,,,,,gradcpt,False,go,enter,1.0,700.0,5.5,img,True,,,,,,,
,,,,,image-keyboard-response,438,570630,13,1,,,,./img900_esterman_w/c5_c6.gif,,,,,,,,gradcpt,False,go,enter,1.0,700.0,6.0,transition,False,,,,,,,
,,,,,image-keyboard-response,439,571342,13,1,18.0,enter,,./img900_esterman_w/city_6.jpg,,,,,,,,gradcpt,False,go,enter,1.0,700.0,6.5,img,True,,,,,,,
,,,,,image-keyboard-response,440,572057,13,1,,,,./img900_esterman_w/c6_c1.gif,,,,,,,,gradcpt,False,go,enter,1.0,700.0,7.0,transition,False,,,,,,,
,,,,,image-keyboard-response,441,572764,13,1,354.0,enter,,./img900_esterman_w/city_1.jpg,,,,,,,,gradcpt,False,go,enter,1.0,700.0,7.5,img,True,,,,,,,
,,,,,image-keyboard-response,442,573476,13,1,,,,./img900_esterman_w/c1_c3.gif,,,,,,,,gradcpt,False,go,enter,1.0,700.0,8.0,transition,False,,,,,,,
,,,,,image-keyboard-response,443,574190,13,1,93.0,enter,,./img900_esterman_w/city_3.jpg,,,,,,,,gradcpt,False,go,enter,1.0,700.0,8.5,img,True,,,,,,,
,,,,,image-keyboard-response,444,574902,13,1,,,,./img900_esterman_w/c3_c5.gif,,,,,,,,gradcpt,False,go,enter,1.0,700.0,9.0,transition,False,,,,,,,
,,,,,image-keyboard-response,445,575615,13,1,88.0,enter,,./img900_esterman_w/city_5.jpg,,,,,,,,gradcpt,False,go,enter,1.0,700.0,9.5,img,True,,,,,,,
,,,,,image-keyboard-response,446,576327,13,1,,,,./img900_esterman_w/c5_c6.gif,,,,,,,,gradcpt,False,go,enter,1.0,700.0,10.0,transition,False,,,,,,,
,,,,,image-keyboard-response,447,577041,13,1,404.0,enter,,./img900_esterman_w/city_6.jpg,,,,,,,,gradcpt,False,go,enter,1.0,700.0,10.5,img,True,,,,,,,
,,,,,image-keyboard-response,448,577753,13,1,,,,./img900_esterman_w/c6_c4.gif,,,,,,,,gradcpt,False,go,enter,1.0,700.0,11.0,transition,False,,,,,,,
,,,,,image-keyboard-response,449,578465,13,1,352.0,enter,,./img900_esterman_w/city_4.jpg,,,,,,,,gradcpt,False,go,enter,1.0,700.0,11.5,img,True,,,,,,,
,,,,,image-keyboard-response,450,579177,13,1,,,,./img900_esterman_w/c4_c1.gif,,,,,,,,gradcpt,False,go,enter,1.0,700.0,12.0,transition,False,,,,,,,
,,,,,image-keyboard-response,451,579891,13,1,295.0,enter,,./img900_esterman_w/city_1.jpg,,,,,,,,gradcpt,False,go,enter,1.0,700.0,12.5,img,True,,,,,,,
,,,,,image-keyboard-response,452,580603,13,1,,,,./img900_esterman_w/c1_c2.gif,,,,,,,,gradcpt,False,go,enter,1.0,700.0,13.0,transition,False,,,,,,,
,,,,,image-keyboard-response,453,581316,13,1,271.0,enter,,./img900_esterman_w/city_2.jpg,,,,,,,,gradcpt,False,go,enter,1.0,700.0,13.5,img,True,,,,,,,
,,,,,image-keyboard-response,454,582024,13,1,,,,./img900_esterman_w/c2_c4.gif,,,,,,,,gradcpt,False,go,enter,1.0,700.0,14.0,transition,False,,,,,,,
,,,,,image-keyboard-response,455,582738,13,1,383.0,enter,,./img900_esterman_w/city_4.jpg,,,,,,,,gradcpt,False,go,enter,1.0,700.0,14.5,img,True,,,,,,,
,,,,,image-keyboard-response,456,583450,13,1,,,,./img900_esterman_w/c4_c3.gif,,,,,,,,gradcpt,False,go,enter,1.0,700.0,15.0,transition,False,,,,,,,
,,,,,image-keyboard-response,457,584163,13,1,435.0,enter,,./img900_esterman_w/city_3.jpg,,,,,,,,gradcpt,False,go,enter,1.0,700.0,15.5,img,True,,,,,,,
,,,,,image-keyboard-response,458,584872,13,1,,,,./img900_esterman_w/c3_c5.gif,,,,,,,,gradcpt,False,go,enter,1.0,700.0,16.0,transition,False,,,,,,,
,,,,,image-keyboard-response,459,585587,13,1,,,,./img900_esterman_w/city_5.jpg,,,,,,,,gradcpt,False,go,enter,1.0,700.0,16.5,img,False,,,,,,,
,,,,,image-keyboard-response,460,586301,13,1,316.0,enter,,./img900_esterman_w/c5_c4.gif,,,,,,,,gradcpt,False,go,enter,1.0,700.0,17.0,transition,True,,,,,,,
,,,,,image-keyboard-response,461,587015,13,1,515.0,enter,,./img900_esterman_w/city_4.jpg,,,,,,,,gradcpt,False,go,enter,1.0,700.0,17.5,img,True,,,,,,,
,,,,,image-keyboard-response,462,587729,13,1,,,,./img900_esterman_w/c4_c3.gif,,,,,,,,gradcpt,False,go,enter,1.0,700.0,18.0,transition,False,,,,,,,
,,,,,image-keyboard-response,463,588443,13,1,65.0,enter,,./img900_esterman_w/city_3.jpg,,,,,,,,gradcpt,False,go,enter,1.0,700.0,18.5,img,True,,,,,,,
,,,,,image-keyboard-response,464,589159,13,1,,,,./img900_esterman_w/c3_c2.gif,,,,,,,,gradcpt,False,go,enter,1.0,700.0,19.0,transition,False,,,,,,,
,,,,,image-keyboard-response,465,589872,13,1,13.0,enter,,./img900_esterman_w/city_2.jpg,,,,,,,,gradcpt,False,go,enter,1.0,700.0,19.5,img,True,,,,,,,
,,,,,image-keyboard-response,466,590585,13,1,,,,./img900_esterman_w/c2_c6.gif,,,,,,,,gradcpt,False,go,enter,1.0,700.0,20.0,transition,False,,,,,,,
,,,,,image-keyboard-response,467,591298,13,1,145.0,enter,,./img900_esterman_w/city_6.jpg,,,,,,,,gradcpt,False,go,enter,1.0,700.0,20.5,img,True,,,,,,,
,,,,,image-keyboard-response,468,592010,13,1,316.0,enter,,./img900_esterman_w/c6_c3.gif,,,,,,,,gradcpt,False,go,enter,1.0,700.0,21.0,transition,True,,,,,,,
,,,,,image-keyboard-response,469,592724,13,1,,,,./img900_esterman_w/city_3.jpg,,,,,,,,gradcpt,False,go,enter,1.0,700.0,21.5,img,True,,,,,,,
,,,,,image-keyboard-response,470,593439,13,1,,,,./img900_esterman_w/c3_c1.gif,,,,,,,,gradcpt,False,go,enter,1.0,700.0,22.0,transition,False,,,,,,,
,,,,,image-keyboard-response,471,594152,13,1,81.0,enter,,./img900_esterman_w/city_1.jpg,,,,,,,,gradcpt,False,go,enter,1.0,700.0,22.5,img,True,,,,,,,
,,,,,image-keyboard-response,472,594866,13,1,,,,./img900_esterman_w/c1_c5.gif,,,,,,,,gradcpt,False,go,enter,1.0,700.0,23.0,transition,False,,,,,,,
,,,,,image-keyboard-response,473,595580,13,1,152.0,enter,,./img900_esterman_w/city_5.jpg,,,,,,,,gradcpt,False,go,enter,1.0,700.0,23.5,img,True,,,,,,,
,,,,,image-keyboard-response,474,596293,13,1,,,,./img900_esterman_w/c5_c2.gif,,,,,,,,gradcpt,False,go,enter,1.0,700.0,24.0,transition,False,,,,,,,
,,,,,image-keyboard-response,475,597008,13,1,60.0,enter,,./img900_esterman_w/city_2.jpg,,,,,,,,gradcpt,False,go,enter,1.0,700.0,24.5,img,True,,,,,,,
,,,,,image-keyboard-response,476,597723,13,1,,,,./img900_esterman_w/c2_c3.gif,,,,,,,,gradcpt,False,go,enter,1.0,700.0,25.0,transition,False,,,,,,,
,,,,,image-keyboard-response,477,598437,13,1,164.0,enter,,./img900_esterman_w/city_3.jpg,,,,,,,,gradcpt,False,go,enter,1.0,700.0,25.5,img,True,,,,,,,
,,,,,image-keyboard-response,478,599151,13,1,,,,./img900_esterman_w/c3_c4.gif,,,,,,,,gradcpt,False,go,enter,1.0,700.0,26.0,transition,False,,,,,,,
,,,,,image-keyboard-response,479,599863,13,1,410.0,enter,,./img900_esterman_w/city_4.jpg,,,,,,,,gradcpt,False,go,enter,1.0,700.0,26.5,img,True,,,,,,,
,,,,,image-keyboard-response,480,600577,13,1,,,,./img900_esterman_w/c4_c6.gif,,,,,,,,gradcpt,False,go,enter,1.0,700.0,27.0,transition,False,,,,,,,
,,,,,image-keyboard-response,481,601289,13,1,214.0,enter,,./img900_esterman_w/city_6.jpg,,,,,,,,gradcpt,False,go,enter,1.0,700.0,27.5,img,True,,,,,,,
,,,,,image-keyboard-response,482,602005,13,1,,,,./img900_esterman_w/c6_m1.gif,,,,,,,,gradcpt,False,no-go,,1.0,700.0,28.0,transition,True,,,,,,,
,,,,,image-keyboard-response,483,602718,13,1,,,,./img900_esterman_w/mountain_1.jpg,,,,,,,,gradcpt,False,no-go,,1.0,700.0,28.5,img,True,,,,,,,
,,,,,image-keyboard-response,484,603433,13,1,,,,./img900_esterman_w/m1_c2.gif,,,,,,,,gradcpt,False,go,enter,1.0,700.0,29.0,transition,False,,,,,,,
,,,,,image-keyboard-response,485,604148,13,1,416.0,enter,,./img900_esterman_w/city_2.jpg,,,,,,,,gradcpt,False,go,enter,1.0,700.0,29.5,img,True,,,,,,,
,,,,,image-keyboard-response,486,604863,13,1,,,,./img900_esterman_w/c2_c5.gif,,,,,,,,gradcpt,False,go,enter,1.0,700.0,30.0,transition,False,,,,,,,
,,,,,image-keyboard-response,487,605576,13,1,337.0,enter,,./img900_esterman_w/city_5.jpg,,,,,,,,gradcpt,False,go,enter,1.0,700.0,30.5,img,True,,,,,,,
,,,,,image-keyboard-response,488,606292,13,1,,,,./img900_esterman_w/c5_c2.gif,,,,,,,,gradcpt,False,go,enter,1.0,700.0,31.0,transition,False,,,,,,,
,,,,,image-keyboard-response,489,607006,13,1,266.0,enter,,./img900_esterman_w/city_2.jpg,,,,,,,,gradcpt,False,go,enter,1.0,700.0,31.5,img,True,,,,,,,
,,,,,image-keyboard-response,490,607722,13,1,636.0,enter,,./img900_esterman_w/c2_c4.gif,,,,,,,,gradcpt,False,go,enter,1.0,700.0,32.0,transition,True,,,,,,,
,,,,,image-keyboard-response,491,608435,13,1,510.0,enter,,./img900_esterman_w/city_4.jpg,,,,,,,,gradcpt,False,go,enter,1.0,700.0,32.5,img,True,,,,,,,
,,,,,image-keyboard-response,492,609149,13,1,411.0,enter,,./img900_esterman_w/c4_c5.gif,,,,,,,,gradcpt,False,go,enter,1.0,700.0,33.0,transition,True,,,,,,,
,,,,,image-keyboard-response,493,609864,13,1,187.0,enter,,./img900_esterman_w/city_5.jpg,,,,,,,,gradcpt,False,go,enter,1.0,700.0,33.5,img,True,,,,,,,
,,,,,image-keyboard-response,494,610579,13,1,73.0,enter,,./img900_esterman_w/c5_c1.gif,,,,,,,,gradcpt,False,go,enter,1.0,700.0,34.0,transition,True,,,,,,,
,,,,,image-keyboard-response,495,611293,13,1,49.0,enter,,./img900_esterman_w/city_1.jpg,,,,,,,,gradcpt,False,go,enter,1.0,700.0,34.5,img,True,,,,,,,
,,,,,image-keyboard-response,496,612009,13,1,581.0,enter,,./img900_esterman_w/c1_c2.gif,,,,,,,,gradcpt,False,go,enter,1.0,700.0,35.0,transition,True,,,,,,,
,,,,,image-keyboard-response,497,612723,13,1,568.0,enter,,./img900_esterman_w/city_2.jpg,,,,,,,,gradcpt,False,go,enter,1.0,700.0,35.5,img,True,,,,,,,
,,,,,image-keyboard-response,498,613437,13,1,487.0,enter,,./img900_esterman_w/c2_c6.gif,,,,,,,,gradcpt,False,go,enter,1.0,700.0,36.0,transition,True,,,,,,,
,,,,,image-keyboard-response,499,614151,13,1,641.0,enter,,./img900_esterman_w/city_6.jpg,,,,,,,,gradcpt,False,go,enter,1.0,700.0,36.5,img,True,,,,,,,
,,,,,image-keyboard-response,500,614864,13,1,,,,./img900_esterman_w/c6_c2.gif,,,,,,,,gradcpt,False,go,enter,1.0,700.0,37.0,transition,False,,,,,,,
,,,,,image-keyboard-response,501,615577,13,1,349.0,enter,,./img900_esterman_w/city_2.jpg,,,,,,,,gradcpt,False,go,enter,1.0,700.0,37.5,img,True,,,,,,,
,,,,,image-keyboard-response,502,616291,13,1,,,,./img900_esterman_w/c2_c6.gif,,,,,,,,gradcpt,False,go,enter,1.0,700.0,38.0,transition,False,,,,,,,
,,,,,image-keyboard-response,503,617006,13,1,26.0,enter,,./img900_esterman_w/city_6.jpg,,,,,,,,gradcpt,False,go,enter,1.0,700.0,38.5,img,True,,,,,,,
,,,,,image-keyboard-response,504,617720,13,1,,,,./img900_esterman_w/c6_c4.gif,,,,,,,,gradcpt,False,go,enter,1.0,700.0,39.0,transition,False,,,,,,,
,,,,,image-keyboard-response,505,618435,13,1,523.0,enter,,./img900_esterman_w/city_4.jpg,,,,,,,,gradcpt,False,go,enter,1.0,700.0,39.5,img,True,,,,,,,
,,,,,image-keyboard-response,506,619146,13,1,,,,./img900_esterman_w/c4_white1.gif,,,,,,,,gradcpt,False,filler,enter,1.0,700.0,3.0,transition,,,,,,,,
,,,,,survey-text,507,622786,13,1,3624.0,"{""bid"":""25""}",,,,,,,,,,,,,,,,,,,,71.0,5.0,gradcpt,False,,
,,,,,html-keyboard-response,508,623798,13,1,,,,You will now stay in the same game.,,,,,,,,,,,,,,,,,,,,,,,
,,,,,image-keyboard-response,509,624513,13,1,,,,./img900_esterman_w/white1_c6.gif,,,,,,,,gradcpt,False,go,enter,1.0,700.0,0.0,transition,False,,,,,,,
,,,,,image-keyboard-response,510,625230,13,1,509.0,enter,,./img900_esterman_w/city_6.jpg,,,,,,,,gradcpt,False,go,enter,1.0,700.0,0.5,img,True,,,,,,,
,,,,,image-keyboard-response,511,625945,13,1,,,,./img900_esterman_w/c6_c1.gif,,,,,,,,gradcpt,False,go,enter,1.0,700.0,1.0,transition,False,,,,,,,
,,,,,image-keyboard-response,512,626660,13,1,502.0,enter,,./img900_esterman_w/city_1.jpg,,,,,,,,gradcpt,False,go,enter,1.0,700.0,1.5,img,True,,,,,,,
,,,,,image-keyboard-response,513,627378,13,1,,,,./img900_esterman_w/c1_c3.gif,,,,,,,,gradcpt,False,go,enter,1.0,700.0,2.0,transition,False,,,,,,,
,,,,,image-keyboard-response,514,628093,13,1,453.0,enter,,./img900_esterman_w/city_3.jpg,,,,,,,,gradcpt,False,go,enter,1.0,700.0,2.5,img,True,,,,,,,
,,,,,image-keyboard-response,515,628810,13,1,,,,./img900_esterman_w/c3_c5.gif,,,,,,,,gradcpt,False,go,enter,1.0,700.0,3.0,transition,False,,,,,,,
,,,,,image-keyboard-response,516,629516,13,1,46.0,enter,,./img900_esterman_w/city_5.jpg,,,,,,,,gradcpt,False,go,enter,1.0,700.0,3.5,img,True,,,,,,,
,,,,,image-keyboard-response,517,630231,13,1,,,,./img900_esterman_w/c5_c1.gif,,,,,,,,gradcpt,False,go,enter,1.0,700.0,4.0,transition,False,,,,,,,
,,,,,image-keyboard-response,518,630946,13,1,144.0,enter,,./img900_esterman_w/city_1.jpg,,,,,,,,gradcpt,False,go,enter,1.0,700.0,4.5,img,True,,,,,,,
,,,,,image-keyboard-response,519,631662,13,1,,,,./img900_esterman_w/c1_c5.gif,,,,,,,,gradcpt,False,go,enter,1.0,700.0,5.0,transition,False,,,,,,,
,,,,,image-keyboard-response,520,632377,13,1,360.0,enter,,./img900_esterman_w/city_5.jpg,,,,,,,,gradcpt,False,go,enter,1.0,700.0,5.5,img,True,,,,,,,
,,,,,image-keyboard-response,521,633093,13,1,,,,./img900_esterman_w/c5_c6.gif,,,,,,,,gradcpt,False,go,enter,1.0,700.0,6.0,transition,False,,,,,,,
,,,,,image-keyboard-response,522,633809,13,1,367.0,enter,,./img900_esterman_w/city_6.jpg,,,,,,,,gradcpt,False,go,enter,1.0,700.0,6.5,img,True,,,,,,,
,,,,,image-keyboard-response,523,634525,13,1,,,,./img900_esterman_w/c6_c1.gif,,,,,,,,gradcpt,False,go,enter,1.0,700.0,7.0,transition,False,,,,,,,
,,,,,image-keyboard-response,524,635239,13,1,125.0,enter,,./img900_esterman_w/city_1.jpg,,,,,,,,gradcpt,False,go,enter,1.0,700.0,7.5,img,True,,,,,,,
,,,,,image-keyboard-response,525,635955,13,1,,,,./img900_esterman_w/c1_c3.gif,,,,,,,,gradcpt,False,go,enter,1.0,700.0,8.0,transition,False,,,,,,,
,,,,,image-keyboard-response,526,636670,13,1,145.0,enter,,./img900_esterman_w/city_3.jpg,,,,,,,,gradcpt,False,go,enter,1.0,700.0,8.5,img,True,,,,,,,
,,,,,image-keyboard-response,527,637385,13,1,,,,./img900_esterman_w/c3_c5.gif,,,,,,,,gradcpt,False,go,enter,1.0,700.0,9.0,transition,False,,,,,,,
,,,,,image-keyboard-response,528,638101,13,1,216.0,enter,,./img900_esterman_w/city_5.jpg,,,,,,,,gradcpt,False,go,enter,1.0,700.0,9.5,img,True,,,,,,,
,,,,,image-keyboard-response,529,638810,13,1,,,,./img900_esterman_w/c5_c6.gif,,,,,,,,gradcpt,False,go,enter,1.0,700.0,10.0,transition,False,,,,,,,
,,,,,image-keyboard-response,530,639524,13,1,223.0,enter,,./img900_esterman_w/city_6.jpg,,,,,,,,gradcpt,False,go,enter,1.0,700.0,10.5,img,True,,,,,,,
,,,,,image-keyboard-response,531,640239,13,1,,,,./img900_esterman_w/c6_c4.gif,,,,,,,,gradcpt,False,go,enter,1.0,700.0,11.0,transition,False,,,,,,,
,,,,,image-keyboard-response,532,640955,13,1,291.0,enter,,./img900_esterman_w/city_4.jpg,,,,,,,,gradcpt,False,go,enter,1.0,700.0,11.5,img,True,,,,,,,
,,,,,image-keyboard-response,533,641668,13,1,,,,./img900_esterman_w/c4_c1.gif,,,,,,,,gradcpt,False,go,enter,1.0,700.0,12.0,transition,False,,,,,,,
,,,,,image-keyboard-response,534,642384,13,1,202.0,enter,,./img900_esterman_w/city_1.jpg,,,,,,,,gradcpt,False,go,enter,1.0,700.0,12.5,img,True,,,,,,,
,,,,,image-keyboard-response,535,643097,13,1,,,,./img900_esterman_w/c1_c2.gif,,,,,,,,gradcpt,False,go,enter,1.0,700.0,13.0,transition,False,,,,,,,
,,,,,image-keyboard-response,536,643811,13,1,424.0,enter,,./img900_esterman_w/city_2.jpg,,,,,,,,gradcpt,False,go,enter,1.0,700.0,13.5,img,True,,,,,,,
,,,,,image-keyboard-response,537,644527,13,1,,,,./img900_esterman_w/c2_c4.gif,,,,,,,,gradcpt,False,go,enter,1.0,700.0,14.0,transition,False,,,,,,,
,,,,,image-keyboard-response,538,645244,13,1,520.0,enter,,./img900_esterman_w/city_4.jpg,,,,,,,,gradcpt,False,go,enter,1.0,700.0,14.5,img,True,,,,,,,
,,,,,image-keyboard-response,539,645960,13,1,,,,./img900_esterman_w/c4_c3.gif,,,,,,,,gradcpt,False,go,enter,1.0,700.0,15.0,transition,False,,,,,,,
,,,,,image-keyboard-response,540,646676,13,1,482.0,enter,,./img900_esterman_w/city_3.jpg,,,,,,,,gradcpt,False,go,enter,1.0,700.0,15.5,img,True,,,,,,,
,,,,,image-keyboard-response,541,647391,13,1,,,,./img900_esterman_w/c3_c5.gif,,,,,,,,gradcpt,False,go,enter,1.0,700.0,16.0,transition,False,,,,,,,
,,,,,image-keyboard-response,542,648106,13,1,551.0,enter,,./img900_esterman_w/city_5.jpg,,,,,,,,gradcpt,False,go,enter,1.0,700.0,16.5,img,True,,,,,,,
,,,,,image-keyboard-response,543,648823,13,1,,,,./img900_esterman_w/c5_c4.gif,,,,,,,,gradcpt,False,go,enter,1.0,700.0,17.0,transition,False,,,,,,,
,,,,,image-keyboard-response,544,649538,13,1,348.0,enter,,./img900_esterman_w/city_4.jpg,,,,,,,,gradcpt,False,go,enter,1.0,700.0,17.5,img,True,,,,,,,
,,,,,image-keyboard-response,545,650254,13,1,,,,./img900_esterman_w/c4_c3.gif,,,,,,,,gradcpt,False,go,enter,1.0,700.0,18.0,transition,False,,,,,,,
,,,,,image-keyboard-response,546,650969,13,1,598.0,enter,,./img900_esterman_w/city_3.jpg,,,,,,,,gradcpt,False,go,enter,1.0,700.0,18.5,img,True,,,,,,,
,,,,,image-keyboard-response,547,651685,13,1,,,,./img900_esterman_w/c3_c2.gif,,,,,,,,gradcpt,False,go,enter,1.0,700.0,19.0,transition,False,,,,,,,
,,,,,image-keyboard-response,548,652400,13,1,,,,./img900_esterman_w/city_2.jpg,,,,,,,,gradcpt,False,go,enter,1.0,700.0,19.5,img,False,,,,,,,
,,,,,image-keyboard-response,549,653117,13,1,,,,./img900_esterman_w/c2_c6.gif,,,,,,,,gradcpt,False,go,enter,1.0,700.0,20.0,transition,False,,,,,,,
,,,,,image-keyboard-response,550,653832,13,1,47.0,enter,,./img900_esterman_w/city_6.jpg,,,,,,,,gradcpt,False,go,enter,1.0,700.0,20.5,img,True,,,,,,,
,,,,,image-keyboard-response,551,654549,13,1,129.0,enter,,./img900_esterman_w/c6_c3.gif,,,,,,,,gradcpt,False,go,enter,1.0,700.0,21.0,transition,True,,,,,,,
,,,,,image-keyboard-response,552,655265,13,1,290.0,enter,,./img900_esterman_w/city_3.jpg,,,,,,,,gradcpt,False,go,enter,1.0,700.0,21.5,img,True,,,,,,,
,,,,,image-keyboard-response,553,655981,13,1,622.0,enter,,./img900_esterman_w/c3_c1.gif,,,,,,,,gradcpt,False,go,enter,1.0,700.0,22.0,transition,True,,,,,,,
,,,,,image-keyboard-response,554,656697,13,1,,,,./img900_esterman_w/city_1.jpg,,,,,,,,gradcpt,False,go,enter,1.0,700.0,22.5,img,True,,,,,,,
,,,,,image-keyboard-response,555,657413,13,1,,,,./img900_esterman_w/c1_c5.gif,,,,,,,,gradcpt,False,go,enter,1.0,700.0,23.0,transition,False,,,,,,,
,,,,,image-keyboard-response,556,658127,13,1,175.0,enter,,./img900_esterman_w/city_5.jpg,,,,,,,,gradcpt,False,go,enter,1.0,700.0,23.5,img,True,,,,,,,
,,,,,image-keyboard-response,557,658844,13,1,,,,./img900_esterman_w/c5_c2.gif,,,,,,,,gradcpt,False,go,enter,1.0,700.0,24.0,transition,False,,,,,,,
,,,,,image-keyboard-response,558,659559,13,1,175.0,enter,,./img900_esterman_w/city_2.jpg,,,,,,,,gradcpt,False,go,enter,1.0,700.0,24.5,img,True,,,,,,,
,,,,,image-keyboard-response,559,660276,13,1,,,,./img900_esterman_w/c2_c3.gif,,,,,,,,gradcpt,False,go,enter,1.0,700.0,25.0,transition,False,,,,,,,
,,,,,image-keyboard-response,560,660993,13,1,168.0,enter,,./img900_esterman_w/city_3.jpg,,,,,,,,gradcpt,False,go,enter,1.0,700.0,25.5,img,True,,,,,,,
,,,,,image-keyboard-response,561,661706,13,1,,,,./img900_esterman_w/c3_c4.gif,,,,,,,,gradcpt,False,go,enter,1.0,700.0,26.0,transition,False,,,,,,,
,,,,,image-keyboard-response,562,662422,13,1,247.0,enter,,./img900_esterman_w/city_4.jpg,,,,,,,,gradcpt,False,go,enter,1.0,700.0,26.5,img,True,,,,,,,
,,,,,image-keyboard-response,563,663137,13,1,,,,./img900_esterman_w/c4_c6.gif,,,,,,,,gradcpt,False,go,enter,1.0,700.0,27.0,transition,False,,,,,,,
,,,,,image-keyboard-response,564,663853,13,1,169.0,enter,,./img900_esterman_w/city_6.jpg,,,,,,,,gradcpt,False,go,enter,1.0,700.0,27.5,img,True,,,,,,,
,,,,,image-keyboard-response,565,664570,13,1,,,,./img900_esterman_w/c6_m1.gif,,,,,,,,gradcpt,False,no-go,,1.0,700.0,28.0,transition,True,,,,,,,
,,,,,image-keyboard-response,566,665288,13,1,334.0,enter,,./img900_esterman_w/mountain_1.jpg,,,,,,,,gradcpt,False,no-go,,1.0,700.0,28.5,img,False,,,,,,,
,,,,,image-keyboard-response,567,666004,13,1,631.0,enter,,./img900_esterman_w/m1_c2.gif,,,,,,,,gradcpt,False,go,enter,1.0,700.0,29.0,transition,True,,,,,,,
,,,,,image-keyboard-response,568,666719,13,1,,,,./img900_esterman_w/city_2.jpg,,,,,,,,gradcpt,False,go,enter,1.0,700.0,29.5,img,True,,,,,,,
,,,,,image-keyboard-response,569,667437,13,1,,,,./img900_esterman_w/c2_c5.gif,,,,,,,,gradcpt,False,go,enter,1.0,700.0,30.0,transition,False,,,,,,,
,,,,,image-keyboard-response,570,668154,13,1,211.0,enter,,./img900_esterman_w/city_5.jpg,,,,,,,,gradcpt,False,go,enter,1.0,700.0,30.5,img,True,,,,,,,
,,,,,image-keyboard-response,571,668871,13,1,,,,./img900_esterman_w/c5_c2.gif,,,,,,,,gradcpt,False,go,enter,1.0,700.0,31.0,transition,False,,,,,,,
,,,,,image-keyboard-response,572,669587,13,1,390.0,enter,,./img900_esterman_w/city_2.jpg,,,,,,,,gradcpt,False,go,enter,1.0,700.0,31.5,img,True,,,,,,,
,,,,,image-keyboard-response,573,670304,13,1,,,,./img900_esterman_w/c2_c4.gif,,,,,,,,gradcpt,False,go,enter,1.0,700.0,32.0,transition,False,,,,,,,
,,,,,image-keyboard-response,574,671021,13,1,142.0,enter,,./img900_esterman_w/city_4.jpg,,,,,,,,gradcpt,False,go,enter,1.0,700.0,32.5,img,True,,,,,,,
,,,,,image-keyboard-response,575,671736,13,1,,,,./img900_esterman_w/c4_c5.gif,,,,,,,,gradcpt,False,go,enter,1.0,700.0,33.0,transition,False,,,,,,,
,,,,,image-keyboard-response,576,672452,13,1,410.0,enter,,./img900_esterman_w/city_5.jpg,,,,,,,,gradcpt,False,go,enter,1.0,700.0,33.5,img,True,,,,,,,
,,,,,image-keyboard-response,577,673171,13,1,,,,./img900_esterman_w/c5_c1.gif,,,,,,,,gradcpt,False,go,enter,1.0,700.0,34.0,transition,False,,,,,,,
,,,,,image-keyboard-response,578,673888,13,1,96.0,enter,,./img900_esterman_w/city_1.jpg,,,,,,,,gradcpt,False,go,enter,1.0,700.0,34.5,img,True,,,,,,,
,,,,,image-keyboard-response,579,674604,13,1,,,,./img900_esterman_w/c1_c2.gif,,,,,,,,gradcpt,False,go,enter,1.0,700.0,35.0,transition,False,,,,,,,
,,,,,image-keyboard-response,580,675316,13,1,158.0,enter,,./img900_esterman_w/city_2.jpg,,,,,,,,gradcpt,False,go,enter,1.0,700.0,35.5,img,True,,,,,,,
,,,,,image-keyboard-response,581,676032,13,1,,,,./img900_esterman_w/c2_c6.gif,,,,,,,,gradcpt,False,go,enter,1.0,700.0,36.0,transition,False,,,,,,,
,,,,,image-keyboard-response,582,676749,13,1,103.0,enter,,./img900_esterman_w/city_6.jpg,,,,,,,,gradcpt,False,go,enter,1.0,700.0,36.5,img,True,,,,,,,
,,,,,image-keyboard-response,583,677466,13,1,,,,./img900_esterman_w/c6_c2.gif,,,,,,,,gradcpt,False,go,enter,1.0,700.0,37.0,transition,False,,,,,,,
,,,,,image-keyboard-response,584,678181,13,1,190.0,enter,,./img900_esterman_w/city_2.jpg,,,,,,,,gradcpt,False,go,enter,1.0,700.0,37.5,img,True,,,,,,,
,,,,,image-keyboard-response,585,678898,13,1,,,,./img900_esterman_w/c2_c6.gif,,,,,,,,gradcpt,False,go,enter,1.0,700.0,38.0,transition,False,,,,,,,
,,,,,image-keyboard-response,586,679615,13,1,249.0,enter,,./img900_esterman_w/city_6.jpg,,,,,,,,gradcpt,False,go,enter,1.0,700.0,38.5,img,True,,,,,,,
,,,,,image-keyboard-response,587,680332,13,1,,,,./img900_esterman_w/c6_c4.gif,,,,,,,,gradcpt,False,go,enter,1.0,700.0,39.0,transition,False,,,,,,,
,,,,,image-keyboard-response,588,681050,13,1,369.0,enter,,./img900_esterman_w/city_4.jpg,,,,,,,,gradcpt,False,go,enter,1.0,700.0,39.5,img,True,,,,,,,
,,,,,image-keyboard-response,589,681767,13,1,,,,./img900_esterman_w/c4_white1.gif,,,,,,,,gradcpt,False,filler,enter,1.0,700.0,3.0,transition,,,,,,,,
,,,,,survey-text,590,685865,13,1,4081.0,"{""bid"":""35""}",,,,,,,,,,,,,,,,,,,,97.0,6.0,gradcpt,False,,
,,,,,html-keyboard-response,591,686875,13,1,,,,You will now stay in the same game.,,,,,,,,,,,,,,,,,,,,,,,
,,,,,image-keyboard-response,592,687593,13,1,,,,./img900_esterman_w/white1_c6.gif,,,,,,,,gradcpt,False,go,enter,1.0,700.0,0.0,transition,False,,,,,,,
,,,,,image-keyboard-response,593,688311,13,1,265.0,enter,,./img900_esterman_w/city_6.jpg,,,,,,,,gradcpt,False,go,enter,1.0,700.0,0.5,img,True,,,,,,,
,,,,,image-keyboard-response,594,689027,13,1,,,,./img900_esterman_w/c6_c1.gif,,,,,,,,gradcpt,False,go,enter,1.0,700.0,1.0,transition,False,,,,,,,
,,,,,image-keyboard-response,595,689744,13,1,440.0,enter,,./img900_esterman_w/city_1.jpg,,,,,,,,gradcpt,False,go,enter,1.0,700.0,1.5,img,True,,,,,,,
,,,,,image-keyboard-response,596,690452,13,1,,,,./img900_esterman_w/c1_c3.gif,,,,,,,,gradcpt,False,go,enter,1.0,700.0,2.0,transition,False,,,,,,,
,,,,,image-keyboard-response,597,691168,13,1,357.0,enter,,./img900_esterman_w/city_3.jpg,,,,,,,,gradcpt,False,go,enter,1.0,700.0,2.5,img,True,,,,,,,
,,,,,image-keyboard-response,598,691886,13,1,,,,./img900_esterman_w/c3_c5.gif,,,,,,,,gradcpt,False,go,enter,1.0,700.0,3.0,transition,False,,,,,,,
,,,,,image-keyboard-response,599,692604,13,1,263.0,enter,,./img900_esterman_w/city_5.jpg,,,,,,,,gradcpt,False,go,enter,1.0,700.0,3.5,img,True,,,,,,,
,,,,,image-keyboard-response,600,693321,13,1,,,,./img900_esterman_w/c5_c1.gif,,,,,,,,gradcpt,False,go,enter,1.0,700.0,4.0,transition,False,,,,,,,
,,,,,image-keyboard-response,601,694037,13,1,341.0,enter,,./img900_esterman_w/city_1.jpg,,,,,,,,gradcpt,False,go,enter,1.0,700.0,4.5,img,True,,,,,,,
,,,,,image-keyboard-response,602,694748,13,1,,,,./img900_esterman_w/c1_c5.gif,,,,,,,,gradcpt,False,go,enter,1.0,700.0,5.0,transition,False,,,,,,,
,,,,,image-keyboard-response,603,695465,13,1,575.0,enter,,./img900_esterman_w/city_5.jpg,,,,,,,,gradcpt,False,go,enter,1.0,700.0,5.5,img,True,,,,,,,
,,,,,image-keyboard-response,604,696181,13,1,,,,./img900_esterman_w/c5_c6.gif,,,,,,,,gradcpt,False,go,enter,1.0,700.0,6.0,transition,False,,,,,,,
,,,,,image-keyboard-response,605,696898,13,1,270.0,enter,,./img900_esterman_w/city_6.jpg,,,,,,,,gradcpt,False,go,enter,1.0,700.0,6.5,img,True,,,,,,,
,,,,,image-keyboard-response,606,697615,13,1,,,,./img900_esterman_w/c6_c1.gif,,,,,,,,gradcpt,False,go,enter,1.0,700.0,7.0,transition,False,,,,,,,
,,,,,image-keyboard-response,607,698333,13,1,233.0,enter,,./img900_esterman_w/city_1.jpg,,,,,,,,gradcpt,False,go,enter,1.0,700.0,7.5,img,True,,,,,,,
,,,,,image-keyboard-response,608,699050,13,1,,,,./img900_esterman_w/c1_c3.gif,,,,,,,,gradcpt,False,go,enter,1.0,700.0,8.0,transition,False,,,,,,,
,,,,,image-keyboard-response,609,699767,13,1,214.0,enter,,./img900_esterman_w/city_3.jpg,,,,,,,,gradcpt,False,go,enter,1.0,700.0,8.5,img,True,,,,,,,
,,,,,image-keyboard-response,610,700484,13,1,,,,./img900_esterman_w/c3_c5.gif,,,,,,,,gradcpt,False,go,enter,1.0,700.0,9.0,transition,False,,,,,,,
,,,,,image-keyboard-response,611,701199,13,1,507.0,enter,,./img900_esterman_w/city_5.jpg,,,,,,,,gradcpt,False,go,enter,1.0,700.0,9.5,img,True,,,,,,,
,,,,,image-keyboard-response,612,701916,13,1,,,,./img900_esterman_w/c5_c6.gif,,,,,,,,gradcpt,False,go,enter,1.0,700.0,10.0,transition,False,,,,,,,
,,,,,image-keyboard-response,613,702626,13,1,330.0,enter,,./img900_esterman_w/city_6.jpg,,,,,,,,gradcpt,False,go,enter,1.0,700.0,10.5,img,True,,,,,,,
,,,,,image-keyboard-response,614,703338,13,1,,,,./img900_esterman_w/c6_c4.gif,,,,,,,,gradcpt,False,go,enter,1.0,700.0,11.0,transition,False,,,,,,,
,,,,,image-keyboard-response,615,704054,13,1,444.0,enter,,./img900_esterman_w/city_4.jpg,,,,,,,,gradcpt,False,go,enter,1.0,700.0,11.5,img,True,,,,,,,
,,,,,image-keyboard-response,616,704772,13,1,238.0,enter,,./img900_esterman_w/c4_c1.gif,,,,,,,,gradcpt,False,go,enter,1.0,700.0,12.0,transition,True,,,,,,,
,,,,,image-keyboard-response,617,705489,13,1,390.0,enter,,./img900_esterman_w/city_1.jpg,,,,,,,,gradcpt,False,go,enter,1.0,700.0,12.5,img,True,,,,,,,
,,,,,image-keyboard-response,618,706204,13,1,,,,./img900_esterman_w/c1_c2.gif,,,,,,,,gradcpt,False,go,enter,1.0,700.0,13.0,transition,False,,,,,,,
,,,,,image-keyboard-response,619,706921,13,1,338.0,enter,,./img900_esterman_w/city_2.jpg,,,,,,,,gradcpt,False,go,enter,1.0,700.0,13.5,img,True,,,,,,,
,,,,,image-keyboard-response,620,707638,13,1,,,,./img900_esterman_w/c2_c4.gif,,,,,,,,gradcpt,False,go,enter,1.0,700.0,14.0,transition,False,,,,,,,
,,,,,image-keyboard-response,621,708353,13,1,301.0,enter,,./img900_esterman_w/city_4.jpg,,,,,,,,gradcpt,False,go,enter,1.0,700.0,14.5,img,True,,,,,,,
,,,,,image-keyboard-response,622,709071,13,1,,,,./img900_esterman_w/c4_c3.gif,,,,,,,,gradcpt,False,go,enter,1.0,700.0,15.0,transition,False,,,,,,,
,,,,,image-keyboard-response,623,709788,13,1,198.0,enter,,./img900_esterman_w/city_3.jpg,,,,,,,,gradcpt,False,go,enter,1.0,700.0,15.5,img,True,,,,,,,
,,,,,image-keyboard-response,624,710504,13,1,,,,./img900_esterman_w/c3_c5.gif,,,,,,,,gradcpt,False,go,enter,1.0,700.0,16.0,transition,False,,,,,,,
,,,,,image-keyboard-response,625,711220,13,1,178.0,enter,,./img900_esterman_w/city_5.jpg,,,,,,,,gradcpt,False,go,enter,1.0,700.0,16.5,img,True,,,,,,,
,,,,,image-keyboard-response,626,711938,13,1,,,,./img900_esterman_w/c5_c4.gif,,,,,,,,gradcpt,False,go,enter,1.0,700.0,17.0,transition,False,,,,,,,
,,,,,image-keyboard-response,627,712655,13,1,310.0,enter,,./img900_esterman_w/city_4.jpg,,,,,,,,gradcpt,False,go,enter,1.0,700.0,17.5,img,True,,,,,,,
,,,,,image-keyboard-response,628,713374,13,1,,,,./img900_esterman_w/c4_c3.gif,,,,,,,,gradcpt,False,go,enter,1.0,700.0,18.0,transition,False,,,,,,,
,,,,,image-keyboard-response,629,714088,13,1,90.0,enter,,./img900_esterman_w/city_3.jpg,,,,,,,,gradcpt,False,go,enter,1.0,700.0,18.5,img,True,,,,,,,
,,,,,image-keyboard-response,630,714799,13,1,637.0,enter,,./img900_esterman_w/c3_c2.gif,,,,,,,,gradcpt,False,go,enter,1.0,700.0,19.0,transition,True,,,,,,,
,,,,,image-keyboard-response,631,715516,13,1,,,,./img900_esterman_w/city_2.jpg,,,,,,,,gradcpt,False,go,enter,1.0,700.0,19.5,img,True,,,,,,,
,,,,,image-keyboard-response,632,716234,13,1,,,,./img900_esterman_w/c2_c6.gif,,,,,,,,gradcpt,False,go,enter,1.0,700.0,20.0,transition,False,,,,,,,
,,,,,image-keyboard-response,633,716952,13,1,145.0,enter,,./img900_esterman_w/city_6.jpg,,,,,,,,gradcpt,False,go,enter,1.0,700.0,20.5,img,True,,,,,,,
,,,,,image-keyboard-response,634,717670,13,1,,,,./img900_esterman_w/c6_c3.gif,,,,,,,,gradcpt,False,go,enter,1.0,700.0,21.0,transition,False,,,,,,,
,,,,,image-keyboard-response,635,718387,13,1,413.0,enter,,./img900_esterman_w/city_3.jpg,,,,,,,,gradcpt,False,go,enter,1.0,700.0,21.5,img,True,,,,,,,
,,,,,image-keyboard-response,636,719104,13,1,,,,./img900_esterman_w/c3_c1.gif,,,,,,,,gradcpt,False,go,enter,1.0,700.0,22.0,transition,False,,,,,,,
,,,,,image-keyboard-response,637,719821,13,1,373.0,enter,,./img900_esterman_w/city_1.jpg,,,,,,,,gradcpt,False,go,enter,1.0,700.0,22.5,img,True,,,,,,,
,,,,,image-keyboard-response,638,720539,13,1,,,,./img900_esterman_w/c1_c5.gif,,,,,,,,gradcpt,False,go,enter,1.0,700.0,23.0,transition,False,,,,,,,
,,,,,image-keyboard-response,639,721257,13,1,532.0,enter,,./img900_esterman_w/city_5.jpg,,,,,,,,gradcpt,False,go,enter,1.0,700.0,23.5,img,True,,,,,,,
,,,,,image-keyboard-response,640,721974,13,1,,,,./img900_esterman_w/c5_c2.gif,,,,,,,,gradcpt,False,go,enter,1.0,700.0,24.0,transition,False,,,,,,,
,,,,,image-keyboard-response,641,722692,13,1,298.0,enter,,./img900_esterman_w/city_2.jpg,,,,,,,,gradcpt,False,go,enter,1.0,700.0,24.5,img,True,,,,,,,
,,,,,image-keyboard-response,642,723410,13,1,,,,./img900_esterman_w/c2_c3.gif,,,,,,,,gradcpt,False,go,enter,1.0,700.0,25.0,transition,False,,,,,,,
,,,,,image-keyboard-response,643,724130,13,1,255.0,enter,,./img900_esterman_w/city_3.jpg,,,,,,,,gradcpt,False,go,enter,1.0,700.0,25.5,img,True,,,,,,,
,,,,,image-keyboard-response,644,724846,13,1,,,,./img900_esterman_w/c3_c4.gif,,,,,,,,gradcpt,False,go,enter,1.0,700.0,26.0,transition,False,,,,,,,
,,,,,image-keyboard-response,645,725565,13,1,173.0,enter,,./img900_esterman_w/city_4.jpg,,,,,,,,gradcpt,False,go,enter,1.0,700.0,26.5,img,True,,,,,,,
,,,,,image-keyboard-response,646,726281,13,1,,,,./img900_esterman_w/c4_c6.gif,,,,,,,,gradcpt,False,go,enter,1.0,700.0,27.0,transition,False,,,,,,,
,,,,,image-keyboard-response,647,726993,13,1,23.0,enter,,./img900_esterman_w/city_6.jpg,,,,,,,,gradcpt,False,go,enter,1.0,700.0,27.5,img,True,,,,,,,
,,,,,image-keyboard-response,648,727712,13,1,,,,./img900_esterman_w/c6_m1.gif,,,,,,,,gradcpt,False,no-go,,1.0,700.0,28.0,transition,True,,,,,,,
,,,,,image-keyboard-response,649,728430,13,1,,,,./img900_esterman_w/mountain_1.jpg,,,,,,,,gradcpt,False,no-go,,1.0,700.0,28.5,img,True,,,,,,,
,,,,,image-keyboard-response,650,729150,13,1,,,,./img900_esterman_w/m1_c2.gif,,,,,,,,gradcpt,False,go,enter,1.0,700.0,29.0,transition,False,,,,,,,
,,,,,image-keyboard-response,651,729868,13,1,427.0,enter,,./img900_esterman_w/city_2.jpg,,,,,,,,gradcpt,False,go,enter,1.0,700.0,29.5,img,True,,,,,,,
,,,,,image-keyboard-response,652,730588,13,1,,,,./img900_esterman_w/c2_c5.gif,,,,,,,,gradcpt,False,go,enter,1.0,700.0,30.0,transition,False,,,,,,,
,,,,,image-keyboard-response,653,731304,13,1,501.0,enter,,./img900_esterman_w/city_5.jpg,,,,,,,,gradcpt,False,go,enter,1.0,700.0,30.5,img,True,,,,,,,
,,,,,image-keyboard-response,654,732022,13,1,,,,./img900_esterman_w/c5_c2.gif,,,,,,,,gradcpt,False,go,enter,1.0,700.0,31.0,transition,False,,,,,,,
,,,,,image-keyboard-response,655,732739,13,1,499.0,enter,,./img900_esterman_w/city_2.jpg,,,,,,,,gradcpt,False,go,enter,1.0,700.0,31.5,img,True,,,,,,,
,,,,,image-keyboard-response,656,733456,13,1,,,,./img900_esterman_w/c2_c4.gif,,,,,,,,gradcpt,False,go,enter,1.0,700.0,32.0,transition,False,,,,,,,
,,,,,image-keyboard-response,657,734175,13,1,188.0,enter,,./img900_esterman_w/city_4.jpg,,,,,,,,gradcpt,False,go,enter,1.0,700.0,32.5,img,True,,,,,,,
,,,,,image-keyboard-response,658,734889,13,1,694.0,enter,,./img900_esterman_w/c4_c5.gif,,,,,,,,gradcpt,False,go,enter,1.0,700.0,33.0,transition,True,,,,,,,
,,,,,image-keyboard-response,659,735605,13,1,,,,./img900_esterman_w/city_5.jpg,,,,,,,,gradcpt,False,go,enter,1.0,700.0,33.5,img,True,,,,,,,
,,,,,image-keyboard-response,660,736325,13,1,,,,./img900_esterman_w/c5_c1.gif,,,,,,,,gradcpt,False,go,enter,1.0,700.0,34.0,transition,False,,,,,,,
,,,,,image-keyboard-response,661,737043,13,1,479.0,enter,,./img900_esterman_w/city_1.jpg,,,,,,,,gradcpt,False,go,enter,1.0,700.0,34.5,img,True,,,,,,,
,,,,,image-keyboard-response,662,737761,13,1,,,,./img900_esterman_w/c1_c2.gif,,,,,,,,gradcpt,False,go,enter,1.0,700.0,35.0,transition,False,,,,,,,
,,,,,image-keyboard-response,663,738478,13,1,,,,./img900_esterman_w/city_2.jpg,,,,,,,,gradcpt,False,go,enter,1.0,700.0,35.5,img,False,,,,,,,
,,,,,image-keyboard-response,664,739192,13,1,,,,./img900_esterman_w/c2_c6.gif,,,,,,,,gradcpt,False,go,enter,1.0,700.0,36.0,transition,False,,,,,,,
,,,,,image-keyboard-response,665,739908,13,1,,,,./img900_esterman_w/city_6.jpg,,,,,,,,gradcpt,False,go,enter,1.0,700.0,36.5,img,False,,,,,,,
,,,,,image-keyboard-response,666,740627,13,1,,,,./img900_esterman_w/c6_c2.gif,,,,,,,,gradcpt,False,go,enter,1.0,700.0,37.0,transition,False,,,,,,,
,,,,,image-keyboard-response,667,741345,13,1,,,,./img900_esterman_w/city_2.jpg,,,,,,,,gradcpt,False,go,enter,1.0,700.0,37.5,img,False,,,,,,,
,,,,,image-keyboard-response,668,742063,13,1,64.0,enter,,./img900_esterman_w/c2_c6.gif,,,,,,,,gradcpt,False,go,enter,1.0,700.0,38.0,transition,True,,,,,,,
,,,,,image-keyboard-response,669,742781,13,1,347.0,enter,,./img900_esterman_w/city_6.jpg,,,,,,,,gradcpt,False,go,enter,1.0,700.0,38.5,img,True,,,,,,,
