"","trial_type","trial_index","time_elapsed","rt","gameA_name","gameA_isSR","response","sequence","game_type","timed_out","practice","end_rest","correct_response","rest_trial_num","follows_group_num","follows_internal_block_num","type_desc","subj_id","is_correct_numeric","overall_type_count","block_num","group_num","rest_chunk","num_rest_in_chunk"
"1","ds_main_response",78,"226551",2384.5,"",FALSE,"[0,3,1,1]","[0,3,1,1]","digit_span",FALSE,"false","",NA,NA,"",NA,"",4,1,1,1,"1",NA,0
"2","ds_main_response",87,"230092",1603.90000009537,"",FALSE,"[0,0,0,9]","[0,0,0,9]","digit_span",FALSE,"false","",NA,NA,"",NA,"",4,1,2,1,"1",NA,0
"3","ds_main_response",96,"234779",2724.2000002861,"",FALSE,"[4,7,2,0]","[4,7,2,0]","digit_span",FALSE,"false","",NA,NA,"",NA,"",4,1,3,1,"1",NA,0
"4","ds_main_response",105,"238948",2224.09999990463,"",FALSE,"[8,4,3,6]","[8,4,3,6]","digit_span",FALSE,"false","",NA,NA,"",NA,"",4,1,4,1,"1",NA,0
"5","ds_main_response",114,"242913",2003.59999990463,"",FALSE,"[9,0,0,9]","[9,0,0,9]","digit_span",FALSE,"false","",NA,NA,"",NA,"",4,1,5,1,"1",NA,0
"6","ds_main_response",123,"247182",2318.7000002861,"",FALSE,"[4,2,7,1]","[4,2,7,1]","digit_span",FALSE,"false","",NA,NA,"",NA,"",4,1,6,1,"1",NA,0
"7","ds_main_response",132,"251054",1906.80000019073,"",FALSE,"[5,9,2,8]","[5,9,2,8]","digit_span",FALSE,"false","",NA,NA,"",NA,"",4,1,7,1,"1",NA,0
"8","ds_main_response",141,"255008",2012.59999990463,"",FALSE,"[8,6,6,6]","[8,6,6,6]","digit_span",FALSE,"false","",NA,NA,"",NA,"",4,1,8,1,"1",NA,0
"9","ds_main_response",150,"259473",2512.5,"",FALSE,"[3,5,3,0]","[3,5,3,0]","digit_span",FALSE,"false","",NA,NA,"",NA,"",4,1,9,1,"1",NA,0
"10","ds_main_response",159,"263214",1775.59999990463,"",FALSE,"[5,7,1,4]","[5,7,1,4]","digit_span",FALSE,"false","",NA,NA,"",NA,"",4,1,10,1,"1",NA,0
"11","rt_main_trials",161,"267750",5000,"",FALSE,"null","","rest_task",TRUE,"","false","1","0","null","1","block_same_same",4,0,1,NA,"1",1,3
"12","rt_main_trials",162,"269266",657,"",FALSE,"1","","rest_task",FALSE,"","false","1","1","null","1","block_same_same",4,1,2,NA,"1",1,3
"13","rt_main_trials",163,"270219",5000,"",FALSE,"null","","rest_task",TRUE,"","true","1","2","null","1","block_same_same",4,0,3,NA,"1",1,3
"14","ds_main_response",173,"275612",2424.2000002861,"",FALSE,"[7,8,0,1]","[7,8,0,1]","digit_span",FALSE,"false","",NA,NA,"",NA,"",4,1,11,2,"1",NA,0
"15","ds_main_response",182,"279292",1726.80000019073,"",FALSE,"[0,8,5,5]","[0,8,5,5]","digit_span",FALSE,"false","",NA,NA,"",NA,"",4,1,12,2,"1",NA,0
"16","ds_main_response",191,"283507",2217.69999980927,"",FALSE,"[1,9,7,0]","[1,9,7,0]","digit_span",FALSE,"false","",NA,NA,"",NA,"",4,1,13,2,"1",NA,0
"17","ds_main_response",200,"287130",1658.19999980927,"",FALSE,"[8,0,8,0]","[8,0,8,0]","digit_span",FALSE,"false","",NA,NA,"",NA,"",4,1,14,2,"1",NA,0
"18","ds_main_response",209,"290960",1850.30000019073,"",FALSE,"[4,7,9,1]","[4,7,9,1]","digit_span",FALSE,"false","",NA,NA,"",NA,"",4,1,15,2,"1",NA,0
"19","ds_main_response",218,"294586",1661,"",FALSE,"[4,7,0,7]","[4,7,0,7]","digit_span",FALSE,"false","",NA,NA,"",NA,"",4,1,16,2,"1",NA,0
"20","ds_main_response",227,"298076",1502.5,"",FALSE,"[4,4,7,5]","[4,4,7,5]","digit_span",FALSE,"false","",NA,NA,"",NA,"",4,1,17,2,"1",NA,0
"21","ds_main_response",236,"301975",1930.90000009537,"",FALSE,"[2,4,2,3]","[2,4,2,3]","digit_span",FALSE,"false","",NA,NA,"",NA,"",4,1,18,2,"1",NA,0
"22","ds_main_response",245,"306066",2108.90000009537,"",FALSE,"[3,8,9,2]","[3,8,9,2]","digit_span",FALSE,"false","",NA,NA,"",NA,"",4,1,19,2,"1",NA,0
"23","ds_main_response",254,"310390",2358.30000019073,"",FALSE,"[4,1,6,5]","[4,1,6,5]","digit_span",FALSE,"false","",NA,NA,"",NA,"",4,1,20,2,"1",NA,0
"24","rt_main_trials",256,"314900",5000,"",FALSE,"null","","rest_task",TRUE,"","false","2","0","null","2","block_same_same",4,0,4,NA,"1",2,2
"25","rt_main_trials",257,"316115",5000,"",FALSE,"null","","rest_task",TRUE,"","true","1","1","null","2","block_same_same",4,0,5,NA,"1",2,2
"26","ds_main_response",267,"321498",2396.5,"",FALSE,"[9,1,4,5]","[9,1,4,5]","digit_span",FALSE,"false","",NA,NA,"",NA,"",4,1,21,3,"1",NA,0
"27","ds_main_response",276,"325959",2502.80000019073,"",FALSE,"[8,6,2,4]","[8,6,2,4]","digit_span",FALSE,"false","",NA,NA,"",NA,"",4,1,22,3,"1",NA,0
"28","ds_main_response",285,"330384",2460.30000019073,"",FALSE,"[6,3,1,8]","[6,3,1,8]","digit_span",FALSE,"false","",NA,NA,"",NA,"",4,1,23,3,"1",NA,0
"29","ds_main_response",294,"334321",1970.90000009537,"",FALSE,"[6,8,2,5]","[6,8,2,5]","digit_span",FALSE,"false","",NA,NA,"",NA,"",4,1,24,3,"1",NA,0
"30","ds_main_response",303,"338228",1934.90000009537,"",FALSE,"[0,6,5,4]","[0,6,5,4]","digit_span",FALSE,"false","",NA,NA,"",NA,"",4,1,25,3,"1",NA,0
"31","ds_main_response",312,"342840",2621,"",FALSE,"[5,3,2,0]","[5,3,2,0]","digit_span",FALSE,"false","",NA,NA,"",NA,"",4,1,26,3,"1",NA,0
"32","ds_main_response",321,"346614",1759,"",FALSE,"[6,0,6,9]","[6,0,6,9]","digit_span",FALSE,"false","",NA,NA,"",NA,"",4,1,27,3,"1",NA,0
"33","ds_main_response",330,"351193",2600.2999997139,"",FALSE,"[9,1,0,3]","[9,1,0,3]","digit_span",FALSE,"false","",NA,NA,"",NA,"",4,1,28,3,"1",NA,0
"34","ds_main_response",339,"355271",2092.30000019073,"",FALSE,"[6,3,9,8]","[6,3,9,8]","digit_span",FALSE,"false","",NA,NA,"",NA,"",4,1,29,3,"1",NA,0
"35","ds_main_response",348,"358746",1491.7999997139,"",FALSE,"[6,6,8,4]","[6,6,8,4]","digit_span",FALSE,"false","",NA,NA,"",NA,"",4,1,30,3,"1",NA,0
"36","rt_main_trials",350,"363270",5000,"",FALSE,"null","","rest_task",TRUE,"","false","1","0","1","3","group_A_B",4,0,6,NA,"1",3,4
"37","rt_main_trials",351,"364782",5000,"",FALSE,"null","","rest_task",TRUE,"","false","1","1","1","3","group_A_B",4,0,7,NA,"1",3,4
"38","rt_main_trials",352,"366300",5000,"",FALSE,"null","","rest_task",TRUE,"","false","2","2","1","3","group_A_B",4,0,8,NA,"1",3,4
"39","rt_main_trials",353,"367418",5000,"",FALSE,"null","","rest_task",TRUE,"","true","2","3","1","3","group_A_B",4,0,9,NA,"1",3,4
"40","sr_main_response",356,"372477",2045,"",FALSE,"","[10,11,14,0]","spatial_recall",FALSE,"false","",NA,NA,"",NA,"",4,1,1,4,"2",NA,0
"41","sr_main_response",358,"376426",1929.40000009537,"",FALSE,"","[15,14,3,5]","spatial_recall",FALSE,"false","",NA,NA,"",NA,"",4,0,2,4,"2",NA,0
"42","sr_main_response",360,"380371",1936.30000019073,"",FALSE,"","[1,3,8,12]","spatial_recall",FALSE,"false","",NA,NA,"",NA,"",4,1,3,4,"2",NA,0
"43","sr_main_response",362,"384147",1766.80000019073,"",FALSE,"","[13,12,14,5]","spatial_recall",FALSE,"false","",NA,NA,"",NA,"",4,1,4,4,"2",NA,0
"44","sr_main_response",364,"388046",1889.40000009537,"",FALSE,"","[4,9,3,10]","spatial_recall",FALSE,"false","",NA,NA,"",NA,"",4,1,5,4,"2",NA,0
"45","sr_main_response",366,"391992",1937.5,"",FALSE,"","[10,4,11,6]","spatial_recall",FALSE,"false","",NA,NA,"",NA,"",4,0,6,4,"2",NA,0
"46","sr_main_response",368,"396088",2085.5,"",FALSE,"","[7,4,10,1]","spatial_recall",FALSE,"false","",NA,NA,"",NA,"",4,1,7,4,"2",NA,0
"47","sr_main_response",370,"399869",1771.90000009537,"",FALSE,"","[7,2,3,0]","spatial_recall",FALSE,"false","",NA,NA,"",NA,"",4,1,8,4,"2",NA,0
"48","sr_main_response",372,"403972",2093.60000038147,"",FALSE,"","[2,8,11,5]","spatial_recall",FALSE,"false","",NA,NA,"",NA,"",4,1,9,4,"2",NA,0
"49","sr_main_response",374,"407791",1810.19999980926,"",FALSE,"","[9,13,1,0]","spatial_recall",FALSE,"false","",NA,NA,"",NA,"",4,1,10,4,"2",NA,0
"50","rt_main_trials",376,"412328",5000,"",FALSE,"null","","rest_task",TRUE,"","false","2","0","null","1","block_same_same",4,0,10,NA,"2",4,2
"51","rt_main_trials",377,"413090",5000,"",FALSE,"null","","rest_task",TRUE,"","true","1","1","null","1","block_same_same",4,0,11,NA,"2",4,2
"52","sr_main_response",380,"417835",1713,"",FALSE,"","[10,14,2,3]","spatial_recall",FALSE,"false","",NA,NA,"",NA,"",4,1,11,5,"2",NA,0
"53","sr_main_response",382,"422147",2292.5,"",FALSE,"","[6,1,14,8]","spatial_recall",FALSE,"false","",NA,NA,"",NA,"",4,1,12,5,"2",NA,0
"54","sr_main_response",384,"425834",1670.5,"",FALSE,"","[9,11,10,12]","spatial_recall",FALSE,"false","",NA,NA,"",NA,"",4,1,13,5,"2",NA,0
"55","sr_main_response",386,"429534",1689.90000009537,"",FALSE,"","[5,14,6,1]","spatial_recall",FALSE,"false","",NA,NA,"",NA,"",4,1,14,5,"2",NA,0
"56","sr_main_response",388,"433374",1829.40000009537,"",FALSE,"","[8,12,3,5]","spatial_recall",FALSE,"false","",NA,NA,"",NA,"",4,1,15,5,"2",NA,0
"57","sr_main_response",390,"437165",1780.5,"",FALSE,"","[6,13,5,14]","spatial_recall",FALSE,"false","",NA,NA,"",NA,"",4,1,16,5,"2",NA,0
"58","sr_main_response",392,"440709",1527.5,"",FALSE,"","[5,1,10,9]","spatial_recall",FALSE,"false","",NA,NA,"",NA,"",4,1,17,5,"2",NA,0
"59","sr_main_response",394,"444559",1839.89999961853,"",FALSE,"","[15,10,9,2]","spatial_recall",FALSE,"false","",NA,NA,"",NA,"",4,1,18,5,"2",NA,0
"60","sr_main_response",396,"448724",2152.59999990463,"",FALSE,"","[15,4,2,13]","spatial_recall",FALSE,"false","",NA,NA,"",NA,"",4,1,19,5,"2",NA,0
"61","sr_main_response",398,"452307",1572.5,"",FALSE,"","[14,8,15,11]","spatial_recall",FALSE,"false","",NA,NA,"",NA,"",4,1,20,5,"2",NA,0
"62","rt_main_trials",400,"456821",5000,"",FALSE,"null","","rest_task",TRUE,"","false","1","0","null","2","block_same_same",4,0,12,NA,"2",5,2
"63","rt_main_trials",401,"457642",5000,"",FALSE,"null","","rest_task",TRUE,"","true","2","1","null","2","block_same_same",4,0,13,NA,"2",5,2
"64","sr_main_response",404,"462589",1929.09999990463,"",FALSE,"","[1,12,6,0]","spatial_recall",FALSE,"false","",NA,NA,"",NA,"",4,1,21,6,"2",NA,0
"65","sr_main_response",406,"466702",2096,"",FALSE,"","[4,12,15,0]","spatial_recall",FALSE,"false","",NA,NA,"",NA,"",4,1,22,6,"2",NA,0
"66","sr_main_response",408,"470363",1650.40000009537,"",FALSE,"","[10,1,13,6]","spatial_recall",FALSE,"false","",NA,NA,"",NA,"",4,0,23,6,"2",NA,0
"67","sr_main_response",410,"474058",1682.5,"",FALSE,"","[3,10,1,15]","spatial_recall",FALSE,"false","",NA,NA,"",NA,"",4,1,24,6,"2",NA,0
"68","sr_main_response",412,"477865",1796.40000009537,"",FALSE,"","[5,0,12,13]","spatial_recall",FALSE,"false","",NA,NA,"",NA,"",4,1,25,6,"2",NA,0
"69","sr_main_response",414,"481716",1842,"",FALSE,"","[0,13,3,5]","spatial_recall",FALSE,"false","",NA,NA,"",NA,"",4,1,26,6,"2",NA,0
"70","sr_main_response",416,"485920",2193.09999990463,"",FALSE,"","[13,12,7,11]","spatial_recall",FALSE,"false","",NA,NA,"",NA,"",4,0,27,6,"2",NA,0
"71","sr_main_response",418,"489473",1543.40000009537,"",FALSE,"","[6,1,5,11]","spatial_recall",FALSE,"false","",NA,NA,"",NA,"",4,1,28,6,"2",NA,0
"72","sr_main_response",420,"493101",1616.40000009537,"",FALSE,"","[1,6,12,13]","spatial_recall",FALSE,"false","",NA,NA,"",NA,"",4,0,29,6,"2",NA,0
"73","sr_main_response",422,"497021",1907.59999990463,"",FALSE,"","[12,15,5,14]","spatial_recall",FALSE,"false","",NA,NA,"",NA,"",4,1,30,6,"2",NA,0
"74","rt_main_trials",424,"501554",5000,"",FALSE,"null","","rest_task",TRUE,"","false","2","0","2","3","group_B_A",4,0,14,NA,"2",6,5
"75","rt_main_trials",425,"503072",5000,"",FALSE,"null","","rest_task",TRUE,"","false","2","1","2","3","group_B_A",4,0,15,NA,"2",6,5
"76","rt_main_trials",426,"504592",14,"",FALSE,"2","","rest_task",FALSE,"","false","2","2","2","3","group_B_A",4,1,16,NA,"2",6,5
"77","rt_main_trials",427,"506108",364,"",FALSE,"2","","rest_task",FALSE,"","false","2","3","2","3","group_B_A",4,1,17,NA,"2",6,5
"78","rt_main_trials",428,"507057",5000,"",FALSE,"null","","rest_task",TRUE,"","true","2","4","2","3","group_B_A",4,0,18,NA,"2",6,5
"79","ds_main_response",438,"512192",2122.5,"",FALSE,"[0,3,1,1]","[0,3,1,1]","digit_span",FALSE,"false","",NA,NA,"",NA,"",4,1,31,7,"3",NA,0
"80","ds_main_response",447,"515938",1747.90000009537,"",FALSE,"[0,0,0,9]","[0,0,0,9]","digit_span",FALSE,"false","",NA,NA,"",NA,"",4,1,32,7,"3",NA,0
"81","ds_main_response",456,"519799",1828.80000019073,"",FALSE,"[4,7,2,0]","[4,7,2,0]","digit_span",FALSE,"false","",NA,NA,"",NA,"",4,1,33,7,"3",NA,0
"82","ds_main_response",465,"523822",1981.90000009537,"",FALSE,"[8,4,3,6]","[8,4,3,6]","digit_span",FALSE,"false","",NA,NA,"",NA,"",4,1,34,7,"3",NA,0
"83","ds_main_response",474,"527331",1522.09999990463,"",FALSE,"[9,0,0,9]","[9,0,0,9]","digit_span",FALSE,"false","",NA,NA,"",NA,"",4,1,35,7,"3",NA,0
"84","ds_main_response",483,"531401",2085.7000002861,"",FALSE,"[4,2,7,1]","[4,2,7,1]","digit_span",FALSE,"false","",NA,NA,"",NA,"",4,1,36,7,"3",NA,0
"85","ds_main_response",492,"535374",1978.30000019073,"",FALSE,"[5,9,2,8]","[5,9,2,8]","digit_span",FALSE,"false","",NA,NA,"",NA,"",4,1,37,7,"3",NA,0
"86","ds_main_response",501,"539705",2307.60000038147,"",FALSE,"[8,6,6,6]","[8,6,6,6]","digit_span",FALSE,"false","",NA,NA,"",NA,"",4,1,38,7,"3",NA,0
"87","ds_main_response",510,"544869",3125.5,"",FALSE,"[3,5,3,0]","[3,5,3,0]","digit_span",FALSE,"false","",NA,NA,"",NA,"",4,1,39,7,"3",NA,0
"88","ds_main_response",519,"548851",1949.30000019073,"",FALSE,"[5,7,1,4]","[5,7,1,4]","digit_span",FALSE,"false","",NA,NA,"",NA,"",4,1,40,7,"3",NA,0
"89","rt_main_trials",521,"552583",5000,"",FALSE,"null","","rest_task",TRUE,"","true","1","0","null","1","block_same_same",4,0,19,NA,"3",7,1
"90","ds_main_response",531,"557782",2147.5,"",FALSE,"[7,8,0,1]","[7,8,0,1]","digit_span",FALSE,"false","",NA,NA,"",NA,"",4,1,41,8,"3",NA,0
"91","ds_main_response",540,"561530",1716.7999997139,"",FALSE,"[0,8,5,5]","[0,8,5,5]","digit_span",FALSE,"false","",NA,NA,"",NA,"",4,1,42,8,"3",NA,0
"92","ds_main_response",549,"565691",2136.19999980927,"",FALSE,"[1,9,7,0]","[1,9,7,0]","digit_span",FALSE,"false","",NA,NA,"",NA,"",4,1,43,8,"3",NA,0
"93","ds_main_response",558,"569339",1613.69999980927,"",FALSE,"[8,0,8,0]","[8,0,8,0]","digit_span",FALSE,"false","",NA,NA,"",NA,"",4,1,44,8,"3",NA,0
"94","ds_main_response",567,"573453",2076.7999997139,"",FALSE,"[4,7,9,1]","[4,7,9,1]","digit_span",FALSE,"false","",NA,NA,"",NA,"",4,1,45,8,"3",NA,0
"95","ds_main_response",576,"577410",1944.80000019073,"",FALSE,"[4,7,0,8]","[4,7,0,7]","digit_span",FALSE,"false","",NA,NA,"",NA,"",4,0,46,8,"3",NA,0
"96","ds_main_response",585,"580905",1483.09999990463,"",FALSE,"[4,4,7,5]","[4,4,7,5]","digit_span",FALSE,"false","",NA,NA,"",NA,"",4,1,47,8,"3",NA,0
"97","ds_main_response",594,"585814",2895.40000009537,"",FALSE,"[2,4,2,3]","[2,4,2,3]","digit_span",FALSE,"false","",NA,NA,"",NA,"",4,1,48,8,"3",NA,0
"98","ds_main_response",603,"590038",2208.80000019073,"",FALSE,"[3,8,9,2]","[3,8,9,2]","digit_span",FALSE,"false","",NA,NA,"",NA,"",4,1,49,8,"3",NA,0
"99","ds_main_response",612,"593915",1840.7000002861,"",FALSE,"[4,1,6,5]","[4,1,6,5]","digit_span",FALSE,"false","",NA,NA,"",NA,"",4,1,50,8,"3",NA,0
"100","rt_main_trials",614,"598415",5000,"",FALSE,"null","","rest_task",TRUE,"","true","2","0","null","2","block_same_same",4,0,20,NA,"3",8,1
"101","ds_main_response",624,"603667",2204.40000009537,"",FALSE,"[9,1,4,5]","[9,1,4,5]","digit_span",FALSE,"false","",NA,NA,"",NA,"",4,1,51,9,"3",NA,0
"102","ds_main_response",633,"608928",3206.69999980927,"",FALSE,"[8,6,2,5]","[8,6,2,4]","digit_span",FALSE,"false","",NA,NA,"",NA,"",4,0,52,9,"3",NA,0
"103","ds_main_response",642,"614049",3099.09999990463,"",FALSE,"[6,3,1,8]","[6,3,1,8]","digit_span",FALSE,"false","",NA,NA,"",NA,"",4,1,53,9,"3",NA,0
"104","ds_main_response",651,"618037",1981.69999980926,"",FALSE,"[6,8,2,5]","[6,8,2,5]","digit_span",FALSE,"false","",NA,NA,"",NA,"",4,1,54,9,"3",NA,0
"105","ds_main_response",660,"622992",2937.5,"",FALSE,"[0,6,5,4]","[0,6,5,4]","digit_span",FALSE,"false","",NA,NA,"",NA,"",4,1,55,9,"3",NA,0
"106","ds_main_response",669,"627242",2235.59999990463,"",FALSE,"[5,3,2,0]","[5,3,2,0]","digit_span",FALSE,"false","",NA,NA,"",NA,"",4,1,56,9,"3",NA,0
"107","ds_main_response",678,"630931",1659.2000002861,"",FALSE,"[6,0,6,9]","[6,0,6,9]","digit_span",FALSE,"false","",NA,NA,"",NA,"",4,1,57,9,"3",NA,0
"108","ds_main_response",687,"635287",2344.90000009537,"",FALSE,"[9,1,0,3]","[9,1,0,3]","digit_span",FALSE,"false","",NA,NA,"",NA,"",4,1,58,9,"3",NA,0
"109","ds_main_response",696,"640252",2939.7000002861,"",FALSE,"[6,3,8,9]","[6,3,9,8]","digit_span",FALSE,"false","",NA,NA,"",NA,"",4,0,59,9,"3",NA,0
"110","ds_main_response",705,"644081",1789.60000038147,"",FALSE,"[6,6,8,4]","[6,6,8,4]","digit_span",FALSE,"false","",NA,NA,"",NA,"",4,1,60,9,"3",NA,0
"111","rt_main_trials",707,"648389",5000,"",FALSE,"null","","rest_task",TRUE,"","true","2","0","3","3","group_A_B",4,0,21,NA,"3",9,1
"112","sr_main_response",710,"653155",1740,"",FALSE,"","[1,2,7,11]","spatial_recall",FALSE,"false","",NA,NA,"",NA,"",4,1,31,10,"4",NA,0
"113","sr_main_response",712,"657121",1949.5,"",FALSE,"","[13,2,14,8]","spatial_recall",FALSE,"false","",NA,NA,"",NA,"",4,1,32,10,"4",NA,0
"114","sr_main_response",714,"661090",1952.2999997139,"",FALSE,"","[12,11,7,13]","spatial_recall",FALSE,"false","",NA,NA,"",NA,"",4,1,33,10,"4",NA,0
"115","sr_main_response",716,"664689",1583.5,"",FALSE,"","[13,12,7,15]","spatial_recall",FALSE,"false","",NA,NA,"",NA,"",4,1,34,10,"4",NA,0
"116","sr_main_response",718,"669014",2297.59999990463,"",FALSE,"","[14,12,10,13]","spatial_recall",FALSE,"false","",NA,NA,"",NA,"",4,1,35,10,"4",NA,0
"117","sr_main_response",720,"672833",1802.59999990463,"",FALSE,"","[9,2,0,1]","spatial_recall",FALSE,"false","",NA,NA,"",NA,"",4,1,36,10,"4",NA,0
"118","sr_main_response",722,"676782",1930.5,"",FALSE,"","[14,4,11,5]","spatial_recall",FALSE,"false","",NA,NA,"",NA,"",4,1,37,10,"4",NA,0
"119","sr_main_response",724,"682137",3339,"",FALSE,"","[0,2,11,12]","spatial_recall",FALSE,"false","",NA,NA,"",NA,"",4,1,38,10,"4",NA,0
"120","sr_main_response",726,"686038",1883.2999997139,"",FALSE,"","[6,2,7,15]","spatial_recall",FALSE,"false","",NA,NA,"",NA,"",4,1,39,10,"4",NA,0
"121","sr_main_response",728,"689731",1667.19999980927,"",FALSE,"","[13,11,7,5]","spatial_recall",FALSE,"false","",NA,NA,"",NA,"",4,1,40,10,"4",NA,0
"122","rt_main_trials",730,"694021",5000,"",FALSE,"null","","rest_task",TRUE,"","true","2","0","null","1","block_same_same",4,0,22,NA,"4",10,1
"123","sr_main_response",733,"699029",1983.19999980926,"",FALSE,"","[7,1,3,0]","spatial_recall",FALSE,"false","",NA,NA,"",NA,"",4,1,41,11,"4",NA,0
"124","sr_main_response",735,"702985",1937.89999961853,"",FALSE,"","[5,13,7,8]","spatial_recall",FALSE,"false","",NA,NA,"",NA,"",4,1,42,11,"4",NA,0
"125","sr_main_response",737,"706768",1767.40000009537,"",FALSE,"","[10,2,1,3]","spatial_recall",FALSE,"false","",NA,NA,"",NA,"",4,1,43,11,"4",NA,0
"126","sr_main_response",739,"710532",1744.40000009537,"",FALSE,"","[9,2,12,6]","spatial_recall",FALSE,"false","",NA,NA,"",NA,"",4,1,44,11,"4",NA,0
"127","sr_main_response",741,"714015",1465.30000019073,"",FALSE,"","[14,13,15,9]","spatial_recall",FALSE,"false","",NA,NA,"",NA,"",4,1,45,11,"4",NA,0
"128","sr_main_response",743,"717629",1596.7000002861,"",FALSE,"","[6,2,10,4]","spatial_recall",FALSE,"false","",NA,NA,"",NA,"",4,1,46,11,"4",NA,0
"129","sr_main_response",745,"721291",1644.40000009537,"",FALSE,"","[10,12,4,13]","spatial_recall",FALSE,"false","",NA,NA,"",NA,"",4,1,47,11,"4",NA,0
"130","sr_main_response",747,"725105",1794.7000002861,"",FALSE,"","[11,0,4,7]","spatial_recall",FALSE,"false","",NA,NA,"",NA,"",4,1,48,11,"4",NA,0
"131","sr_main_response",749,"728896",1773.30000019073,"",FALSE,"","[15,12,1,4]","spatial_recall",FALSE,"false","",NA,NA,"",NA,"",4,1,49,11,"4",NA,0
"132","sr_main_response",751,"732789",1877.59999990463,"",FALSE,"","[7,5,14,0]","spatial_recall",FALSE,"false","",NA,NA,"",NA,"",4,1,50,11,"4",NA,0
"133","rt_main_trials",753,"737319",5000,"",FALSE,"null","","rest_task",TRUE,"","false","1","0","null","2","block_same_same",4,0,23,NA,"4",11,6
"134","rt_main_trials",754,"738842",5000,"",FALSE,"null","","rest_task",TRUE,"","false","2","1","null","2","block_same_same",4,0,24,NA,"4",11,6
"135","rt_main_trials",755,"740359",681,"",FALSE,"2","","rest_task",FALSE,"","false","2","2","null","2","block_same_same",4,1,25,NA,"4",11,6
"136","rt_main_trials",756,"741876",285,"",FALSE,"2","","rest_task",FALSE,"","false","2","3","null","2","block_same_same",4,1,26,NA,"4",11,6
"137","rt_main_trials",757,"743396",66,"",FALSE,"2","","rest_task",FALSE,"","false","1","4","null","2","block_same_same",4,0,27,NA,"4",11,6
"138","rt_main_trials",758,"744000",5000,"",FALSE,"null","","rest_task",TRUE,"","true","1","5","null","2","block_same_same",4,0,28,NA,"4",11,6
"139","sr_main_response",761,"748732",1700.2999997139,"",FALSE,"","[15,2,6,7]","spatial_recall",FALSE,"false","",NA,NA,"",NA,"",4,1,51,12,"4",NA,0
"140","sr_main_response",763,"752710",1948.7999997139,"",FALSE,"","[2,7,5,6]","spatial_recall",FALSE,"false","",NA,NA,"",NA,"",4,1,52,12,"4",NA,0
"141","sr_main_response",765,"756699",1972.80000019073,"",FALSE,"","[4,8,13,0]","spatial_recall",FALSE,"false","",NA,NA,"",NA,"",4,1,53,12,"4",NA,0
"142","sr_main_response",767,"760628",1908.90000009537,"",FALSE,"","[14,0,7,1]","spatial_recall",FALSE,"false","",NA,NA,"",NA,"",4,1,54,12,"4",NA,0
"143","sr_main_response",769,"764498",1851.5,"",FALSE,"","[1,15,11,10]","spatial_recall",FALSE,"false","",NA,NA,"",NA,"",4,0,55,12,"4",NA,0
"144","sr_main_response",771,"768076",1559,"",FALSE,"","[14,8,10,11]","spatial_recall",FALSE,"false","",NA,NA,"",NA,"",4,1,56,12,"4",NA,0
"145","sr_main_response",773,"771696",1602.2999997139,"",FALSE,"","[1,5,15,14]","spatial_recall",FALSE,"false","",NA,NA,"",NA,"",4,0,57,12,"4",NA,0
"146","sr_main_response",775,"775491",1775.40000009537,"",FALSE,"","[10,2,0,3]","spatial_recall",FALSE,"false","",NA,NA,"",NA,"",4,1,58,12,"4",NA,0
"147","sr_main_response",777,"779187",1677.69999980927,"",FALSE,"","[2,5,11,6]","spatial_recall",FALSE,"false","",NA,NA,"",NA,"",4,1,59,12,"4",NA,0
"148","sr_main_response",779,"782891",1686.7000002861,"",FALSE,"","[7,3,2,15]","spatial_recall",FALSE,"false","",NA,NA,"",NA,"",4,1,60,12,"4",NA,0
"149","rt_main_trials",781,"787414",5000,"",FALSE,"null","","rest_task",TRUE,"","true","2","0","4","3","group_B_B",4,0,29,NA,"4",12,1
"150","sr_main_response",784,"792374",1919.90000009537,"",FALSE,"","[2,8,10,12]","spatial_recall",FALSE,"false","",NA,NA,"",NA,"",4,0,61,13,"5",NA,0
"151","sr_main_response",786,"796359",1964.80000019073,"",FALSE,"","[14,12,13,3]","spatial_recall",FALSE,"false","",NA,NA,"",NA,"",4,1,62,13,"5",NA,0
"152","sr_main_response",788,"800148",1756.69999980927,"",FALSE,"","[7,5,14,12]","spatial_recall",FALSE,"false","",NA,NA,"",NA,"",4,1,63,13,"5",NA,0
"153","sr_main_response",790,"804119",1942.59999990463,"",FALSE,"","[4,5,11,15]","spatial_recall",FALSE,"false","",NA,NA,"",NA,"",4,0,64,13,"5",NA,0
"154","sr_main_response",792,"808209",2072.89999961853,"",FALSE,"","[3,0,1,9]","spatial_recall",FALSE,"false","",NA,NA,"",NA,"",4,1,65,13,"5",NA,0
"155","sr_main_response",794,"812030",1800.40000009537,"",FALSE,"","[6,4,0,13]","spatial_recall",FALSE,"false","",NA,NA,"",NA,"",4,1,66,13,"5",NA,0
"156","sr_main_response",796,"815883",1835.7000002861,"",FALSE,"","[9,11,8,12]","spatial_recall",FALSE,"false","",NA,NA,"",NA,"",4,1,67,13,"5",NA,0
"157","sr_main_response",798,"819829",1923.60000038147,"",FALSE,"","[15,1,12,14]","spatial_recall",FALSE,"false","",NA,NA,"",NA,"",4,1,68,13,"5",NA,0
"158","sr_main_response",800,"823702",1853.40000009537,"",FALSE,"","[7,0,5,2]","spatial_recall",FALSE,"false","",NA,NA,"",NA,"",4,1,69,13,"5",NA,0
"159","sr_main_response",802,"827527",1806.30000019073,"",FALSE,"","[3,7,15,11]","spatial_recall",FALSE,"false","",NA,NA,"",NA,"",4,1,70,13,"5",NA,0
"160","rt_main_trials",804,"831711",5000,"",FALSE,"null","","rest_task",TRUE,"","true","2","0","null","1","block_same_same",4,0,30,NA,"5",13,1
"161","sr_main_response",807,"836794",2052,"",FALSE,"","[7,3,2,14]","spatial_recall",FALSE,"false","",NA,NA,"",NA,"",4,1,71,14,"5",NA,0
"162","sr_main_response",809,"840618",1806,"",FALSE,"","[0,3,12,15]","spatial_recall",FALSE,"false","",NA,NA,"",NA,"",4,1,72,14,"5",NA,0
"163","sr_main_response",811,"844477",1840.59999990463,"",FALSE,"","[2,9,12,5]","spatial_recall",FALSE,"false","",NA,NA,"",NA,"",4,1,73,14,"5",NA,0
"164","sr_main_response",813,"848454",1958.90000009537,"",FALSE,"","[12,7,0,10]","spatial_recall",FALSE,"false","",NA,NA,"",NA,"",4,1,74,14,"5",NA,0
"165","sr_main_response",815,"852190",1715.39999961853,"",FALSE,"","[4,8,0,7]","spatial_recall",FALSE,"false","",NA,NA,"",NA,"",4,1,75,14,"5",NA,0
"166","sr_main_response",817,"855670",1458.59999990463,"",FALSE,"","[8,12,13,10]","spatial_recall",FALSE,"false","",NA,NA,"",NA,"",4,1,76,14,"5",NA,0
"167","sr_main_response",819,"860009",2320.2999997139,"",FALSE,"","[1,2,7,5]","spatial_recall",FALSE,"false","",NA,NA,"",NA,"",4,1,77,14,"5",NA,0
"168","sr_main_response",821,"864643",2612,"",FALSE,"","[10,2,8,5]","spatial_recall",FALSE,"false","",NA,NA,"",NA,"",4,0,78,14,"5",NA,0
"169","sr_main_response",823,"868347",1684.10000038147,"",FALSE,"","[15,14,8,13]","spatial_recall",FALSE,"false","",NA,NA,"",NA,"",4,1,79,14,"5",NA,0
"170","sr_main_response",825,"872029",1655.80000019073,"",FALSE,"","[1,8,4,11]","spatial_recall",FALSE,"false","",NA,NA,"",NA,"",4,0,80,14,"5",NA,0
"171","rt_main_trials",827,"876574",5000,"",FALSE,"null","","rest_task",TRUE,"","false","1","0","null","2","block_same_same",4,0,31,NA,"5",14,7
"172","rt_main_trials",828,"878090",841,"",FALSE,"2","","rest_task",FALSE,"","false","2","1","null","2","block_same_same",4,1,32,NA,"5",14,7
"173","rt_main_trials",829,"879616",351,"",FALSE,"2","","rest_task",FALSE,"","false","2","2","null","2","block_same_same",4,1,33,NA,"5",14,7
"174","rt_main_trials",830,"881137",185,"",FALSE,"2","","rest_task",FALSE,"","false","2","3","null","2","block_same_same",4,1,34,NA,"5",14,7
"175","rt_main_trials",831,"882653",77,"",FALSE,"2","","rest_task",FALSE,"","false","1","4","null","2","block_same_same",4,0,35,NA,"5",14,7
"176","rt_main_trials",832,"884164",306,"",FALSE,"1","","rest_task",FALSE,"","false","1","5","null","2","block_same_same",4,1,36,NA,"5",14,7
"177","rt_main_trials",833,"884781",5000,"",FALSE,"null","","rest_task",TRUE,"","true","1","6","null","2","block_same_same",4,0,37,NA,"5",14,7
"178","sr_main_response",836,"889713",1888.59999990463,"",FALSE,"","[7,6,5,10]","spatial_recall",FALSE,"false","",NA,NA,"",NA,"",4,1,81,15,"5",NA,0
"179","sr_main_response",838,"894422",2675.40000009537,"",FALSE,"","[14,2,11,7]","spatial_recall",FALSE,"false","",NA,NA,"",NA,"",4,1,82,15,"5",NA,0
"180","sr_main_response",840,"898335",1892.7000002861,"",FALSE,"","[11,4,2,5]","spatial_recall",FALSE,"false","",NA,NA,"",NA,"",4,1,83,15,"5",NA,0
"181","sr_main_response",842,"902060",1705.59999990463,"",FALSE,"","[5,8,13,7]","spatial_recall",FALSE,"false","",NA,NA,"",NA,"",4,1,84,15,"5",NA,0
"182","sr_main_response",844,"905509",1431.39999961853,"",FALSE,"","[13,10,9,7]","spatial_recall",FALSE,"false","",NA,NA,"",NA,"",4,1,85,15,"5",NA,0
"183","sr_main_response",846,"909036",1506.90000009537,"",FALSE,"","[6,14,13,15]","spatial_recall",FALSE,"false","",NA,NA,"",NA,"",4,0,86,15,"5",NA,0
"184","sr_main_response",848,"912861",1804.40000009537,"",FALSE,"","[2,5,4,9]","spatial_recall",FALSE,"false","",NA,NA,"",NA,"",4,1,87,15,"5",NA,0
"185","sr_main_response",850,"916890",2010.59999990463,"",FALSE,"","[11,0,2,12]","spatial_recall",FALSE,"false","",NA,NA,"",NA,"",4,1,88,15,"5",NA,0
"186","sr_main_response",852,"920668",1757.40000009537,"",FALSE,"","[0,2,9,12]","spatial_recall",FALSE,"false","",NA,NA,"",NA,"",4,1,89,15,"5",NA,0
"187","sr_main_response",854,"924599",1911,"",FALSE,"","[4,11,12,15]","spatial_recall",FALSE,"false","",NA,NA,"",NA,"",4,1,90,15,"5",NA,0
"188","rt_main_trials",856,"929132",5000,"",FALSE,"null","","rest_task",TRUE,"","false","1","0","5","6","group_B_A",4,0,38,NA,"5",15,2
"189","rt_main_trials",857,"930261",5000,"",FALSE,"null","","rest_task",TRUE,"","true","2","1","5","6","group_B_A",4,0,39,NA,"5",15,2
"190","ds_main_response",867,"935694",2376.80000019073,"",FALSE,"[0,3,1,1]","[0,3,1,1]","digit_span",FALSE,"false","",NA,NA,"",NA,"",4,1,61,16,"6",NA,0
"191","ds_main_response",876,"939392",1646.5,"",FALSE,"[0,0,0,9]","[0,0,0,9]","digit_span",FALSE,"false","",NA,NA,"",NA,"",4,1,62,16,"6",NA,0
"192","ds_main_response",885,"943423",2011.19999980926,"",FALSE,"[4,7,2,0]","[4,7,2,0]","digit_span",FALSE,"false","",NA,NA,"",NA,"",4,1,63,16,"6",NA,0
"193","ds_main_response",894,"947437",1955.59999990463,"",FALSE,"[8,4,3,6]","[8,4,3,6]","digit_span",FALSE,"false","",NA,NA,"",NA,"",4,1,64,16,"6",NA,0
"194","ds_main_response",903,"951070",1566.2999997139,"",FALSE,"[9,0,0,9]","[9,0,0,9]","digit_span",FALSE,"false","",NA,NA,"",NA,"",4,1,65,16,"6",NA,0
"195","ds_main_response",912,"955020",1897.90000009537,"",FALSE,"[4,2,7,1]","[4,2,7,1]","digit_span",FALSE,"false","",NA,NA,"",NA,"",4,1,66,16,"6",NA,0
"196","ds_main_response",921,"959227",2154.59999990463,"",FALSE,"[5,9,2,8]","[5,9,2,8]","digit_span",FALSE,"false","",NA,NA,"",NA,"",4,1,67,16,"6",NA,0
"197","ds_main_response",930,"962966",1705.40000009537,"",FALSE,"[8,6,6,6]","[8,6,6,6]","digit_span",FALSE,"false","",NA,NA,"",NA,"",4,1,68,16,"6",NA,0
"198","ds_main_response",939,"967307",2291.30000019073,"",FALSE,"[3,5,3,0]","[3,5,3,0]","digit_span",FALSE,"false","",NA,NA,"",NA,"",4,1,69,16,"6",NA,0
"199","ds_main_response",948,"970943",1590.59999990463,"",FALSE,"[5,7,1,4]","[5,7,1,4]","digit_span",FALSE,"false","",NA,NA,"",NA,"",4,1,70,16,"6",NA,0
"200","rt_main_trials",950,"975169",5000,"",FALSE,"null","","rest_task",TRUE,"","true","1","0","null","1","block_same_same",4,0,40,NA,"6",16,1
"201","ds_main_response",960,"980185",1955.40000009537,"",FALSE,"[7,8,0,1]","[7,8,0,1]","digit_span",FALSE,"false","",NA,NA,"",NA,"",4,1,71,17,"6",NA,0
"202","ds_main_response",969,"984003",1767.59999990463,"",FALSE,"[0,8,5,5]","[0,8,5,5]","digit_span",FALSE,"false","",NA,NA,"",NA,"",4,1,72,17,"6",NA,0
"203","ds_main_response",978,"988358",2309.5,"",FALSE,"[1,9,7,0]","[1,9,7,0]","digit_span",FALSE,"false","",NA,NA,"",NA,"",4,1,73,17,"6",NA,0
"204","ds_main_response",987,"991692",1293.7000002861,"",FALSE,"[8,0,8,0]","[8,0,8,0]","digit_span",FALSE,"false","",NA,NA,"",NA,"",4,1,74,17,"6",NA,0
"205","ds_main_response",996,"995560",1807.10000038147,"",FALSE,"[4,7,9,1]","[4,7,9,1]","digit_span",FALSE,"false","",NA,NA,"",NA,"",4,1,75,17,"6",NA,0
"206","ds_main_response",1005,"999241",1614.5,"",FALSE,"[4,7,0,7]","[4,7,0,7]","digit_span",FALSE,"false","",NA,NA,"",NA,"",4,1,76,17,"6",NA,0
"207","ds_main_response",1014,"1002800",1497.19999980927,"",FALSE,"[4,4,7,5]","[4,4,7,5]","digit_span",FALSE,"false","",NA,NA,"",NA,"",4,1,77,17,"6",NA,0
"208","ds_main_response",1023,"1007440",2601.5,"",FALSE,"[2,4,2,3]","[2,4,2,3]","digit_span",FALSE,"false","",NA,NA,"",NA,"",4,1,78,17,"6",NA,0
"209","ds_main_response",1032,"1011759",2266.5,"",FALSE,"[3,8,9,2]","[3,8,9,2]","digit_span",FALSE,"false","",NA,NA,"",NA,"",4,1,79,17,"6",NA,0
"210","ds_main_response",1041,"1015582",1763.40000009537,"",FALSE,"[4,1,6,5]","[4,1,6,5]","digit_span",FALSE,"false","",NA,NA,"",NA,"",4,1,80,17,"6",NA,0
"211","rt_main_trials",1043,"1019168",5000,"",FALSE,"null","","rest_task",TRUE,"","true","2","0","null","2","block_same_same",4,0,41,NA,"6",17,1
"212","ds_main_response",1053,"1024326",2086,"",FALSE,"[9,1,4,5]","[9,1,4,5]","digit_span",FALSE,"false","",NA,NA,"",NA,"",4,1,81,18,"6",NA,0
"213","ds_main_response",1062,"1028207",1825.90000009537,"",FALSE,"[8,6,2,4]","[8,6,2,4]","digit_span",FALSE,"false","",NA,NA,"",NA,"",4,1,82,18,"6",NA,0
"214","ds_main_response",1071,"1032305",2040.60000038147,"",FALSE,"[6,3,1,8]","[6,3,1,8]","digit_span",FALSE,"false","",NA,NA,"",NA,"",4,1,83,18,"6",NA,0
"215","ds_main_response",1080,"1036108",1736.40000009537,"",FALSE,"[6,8,2,5]","[6,8,2,5]","digit_span",FALSE,"false","",NA,NA,"",NA,"",4,1,84,18,"6",NA,0
"216","ds_main_response",1089,"1040266",2100.5,"",FALSE,"[0,6,5,4]","[0,6,5,4]","digit_span",FALSE,"false","",NA,NA,"",NA,"",4,1,85,18,"6",NA,0
"217","ds_main_response",1098,"1044780",2440.59999990463,"",FALSE,"[5,3,2,0]","[5,3,2,0]","digit_span",FALSE,"false","",NA,NA,"",NA,"",4,1,86,18,"6",NA,0
"218","ds_main_response",1107,"1048445",1593.90000009537,"",FALSE,"[6,0,6,9]","[6,0,6,9]","digit_span",FALSE,"false","",NA,NA,"",NA,"",4,1,87,18,"6",NA,0
"219","ds_main_response",1116,"1053030",2513.5,"",FALSE,"[9,1,0,3]","[9,1,0,3]","digit_span",FALSE,"false","",NA,NA,"",NA,"",4,1,88,18,"6",NA,0
"220","ds_main_response",1125,"1057056",1957.7999997139,"",FALSE,"[6,3,9,8]","[6,3,9,8]","digit_span",FALSE,"false","",NA,NA,"",NA,"",4,1,89,18,"6",NA,0
"221","ds_main_response",1134,"1060575",1463.5,"",FALSE,"[6,6,8,4]","[6,6,8,4]","digit_span",FALSE,"false","",NA,NA,"",NA,"",4,1,90,18,"6",NA,0
"222","rt_main_trials",1136,"1064816",5000,"",FALSE,"null","","rest_task",TRUE,"","true","1","0","6","3","group_A_B",4,0,42,NA,"6",18,1
"223","sr_main_response",1139,"1069649",1784.7999997139,"",FALSE,"","[4,1,15,3]","spatial_recall",FALSE,"false","",NA,NA,"",NA,"",4,1,91,19,"7",NA,0
"224","sr_main_response",1141,"1073475",1791.80000019073,"",FALSE,"","[1,13,2,5]","spatial_recall",FALSE,"false","",NA,NA,"",NA,"",4,1,92,19,"7",NA,0
"225","sr_main_response",1143,"1077015",1503.09999990463,"",FALSE,"","[11,13,9,15]","spatial_recall",FALSE,"false","",NA,NA,"",NA,"",4,1,93,19,"7",NA,0
"226","sr_main_response",1145,"1080771",1725.69999980927,"",FALSE,"","[12,6,1,11]","spatial_recall",FALSE,"false","",NA,NA,"",NA,"",4,1,94,19,"7",NA,0
"227","sr_main_response",1147,"1084440",1639,"",FALSE,"","[13,10,12,3]","spatial_recall",FALSE,"false","",NA,NA,"",NA,"",4,1,95,19,"7",NA,0
"228","sr_main_response",1149,"1090526",4058.19999980927,"",FALSE,"","[15,5,2,8]","spatial_recall",FALSE,"false","",NA,NA,"",NA,"",4,1,96,19,"7",NA,0
"229","sr_main_response",1151,"1094147",1592.69999980927,"",FALSE,"","[7,10,8,1]","spatial_recall",FALSE,"false","",NA,NA,"",NA,"",4,1,97,19,"7",NA,0
"230","sr_main_response",1153,"1097697",1521.5,"",FALSE,"","[9,14,12,13]","spatial_recall",FALSE,"false","",NA,NA,"",NA,"",4,1,98,19,"7",NA,0
"231","sr_main_response",1155,"1101253",1524.2999997139,"",FALSE,"","[7,11,15,12]","spatial_recall",FALSE,"false","",NA,NA,"",NA,"",4,1,99,19,"7",NA,0
"232","sr_main_response",1157,"1105039",1756.19999980927,"",FALSE,"","[6,4,9,7]","spatial_recall",FALSE,"false","",NA,NA,"",NA,"",4,1,100,19,"7",NA,0
"233","rt_main_trials",1159,"1108734",5000,"",FALSE,"null","","rest_task",TRUE,"","true","2","0","null","1","block_same_same",4,0,43,NA,"7",19,1
"234","sr_main_response",1162,"1113526",1746.40000009537,"",FALSE,"","[0,8,9,5]","spatial_recall",FALSE,"false","",NA,NA,"",NA,"",4,1,101,20,"7",NA,0
"235","sr_main_response",1164,"1117341",1786.30000019073,"",FALSE,"","[3,11,9,4]","spatial_recall",FALSE,"false","",NA,NA,"",NA,"",4,0,102,20,"7",NA,0
"236","sr_main_response",1166,"1120920",1548.59999990463,"",FALSE,"","[10,5,12,15]","spatial_recall",FALSE,"false","",NA,NA,"",NA,"",4,1,103,20,"7",NA,0
"237","sr_main_response",1168,"1124948",1999.5,"",FALSE,"","[4,9,13,0]","spatial_recall",FALSE,"false","",NA,NA,"",NA,"",4,1,104,20,"7",NA,0
"238","sr_main_response",1170,"1128487",1497.19999980927,"",FALSE,"","[10,8,6,14]","spatial_recall",FALSE,"false","",NA,NA,"",NA,"",4,1,105,20,"7",NA,0
"239","sr_main_response",1172,"1132219",1703.5,"",FALSE,"","[14,6,5,0]","spatial_recall",FALSE,"false","",NA,NA,"",NA,"",4,0,106,20,"7",NA,0
"240","sr_main_response",1174,"1136291",2028.10000038147,"",FALSE,"","[0,15,11,12]","spatial_recall",FALSE,"false","",NA,NA,"",NA,"",4,1,107,20,"7",NA,0
"241","sr_main_response",1176,"1140139",1818.5,"",FALSE,"","[7,15,13,4]","spatial_recall",FALSE,"false","",NA,NA,"",NA,"",4,1,108,20,"7",NA,0
"242","sr_main_response",1178,"1143962",1791.5,"",FALSE,"","[4,10,2,14]","spatial_recall",FALSE,"false","",NA,NA,"",NA,"",4,1,109,20,"7",NA,0
"243","sr_main_response",1180,"1147895",1904.40000009537,"",FALSE,"","[3,5,0,6]","spatial_recall",FALSE,"false","",NA,NA,"",NA,"",4,1,110,20,"7",NA,0
"244","rt_main_trials",1182,"1151742",5000,"",FALSE,"null","","rest_task",TRUE,"","true","1","0","null","2","block_same_same",4,0,44,NA,"7",20,1
"245","sr_main_response",1185,"1156548",1750.5,"",FALSE,"","[15,11,1,9]","spatial_recall",FALSE,"false","",NA,NA,"",NA,"",4,1,111,21,"7",NA,0
"246","sr_main_response",1187,"1160168",1589.60000038147,"",FALSE,"","[0,4,5,6]","spatial_recall",FALSE,"false","",NA,NA,"",NA,"",4,1,112,21,"7",NA,0
"247","sr_main_response",1189,"1163686",1488.40000009537,"",FALSE,"","[2,6,13,9]","spatial_recall",FALSE,"false","",NA,NA,"",NA,"",4,1,113,21,"7",NA,0
"248","sr_main_response",1191,"1167850",2131.30000019073,"",FALSE,"","[6,0,14,7]","spatial_recall",FALSE,"false","",NA,NA,"",NA,"",4,1,114,21,"7",NA,0
"249","sr_main_response",1193,"1171420",1539.40000009537,"",FALSE,"","[14,13,4,11]","spatial_recall",FALSE,"false","",NA,NA,"",NA,"",4,1,115,21,"7",NA,0
"250","sr_main_response",1195,"1175216",1767,"",FALSE,"","[3,8,0,4]","spatial_recall",FALSE,"false","",NA,NA,"",NA,"",4,1,116,21,"7",NA,0
"251","sr_main_response",1197,"1179005",1757.30000019073,"",FALSE,"","[1,5,10,0]","spatial_recall",FALSE,"false","",NA,NA,"",NA,"",4,1,117,21,"7",NA,0
"252","sr_main_response",1199,"1182766",1731.80000019073,"",FALSE,"","[7,10,2,11]","spatial_recall",FALSE,"false","",NA,NA,"",NA,"",4,1,118,21,"7",NA,0
"253","sr_main_response",1201,"1186782",1985.40000009537,"",FALSE,"","[12,14,5,7]","spatial_recall",FALSE,"false","",NA,NA,"",NA,"",4,0,119,21,"7",NA,0
"254","sr_main_response",1203,"1190609",1783.40000009537,"",FALSE,"","[10,12,1,14]","spatial_recall",FALSE,"false","",NA,NA,"",NA,"",4,1,120,21,"7",NA,0
"255","rt_main_trials",1205,"1195160",5000,"",FALSE,"null","","rest_task",TRUE,"","false","2","0","7","3","group_B_A",4,0,45,NA,"7",21,2
"256","rt_main_trials",1206,"1195844",5000,"",FALSE,"null","","rest_task",TRUE,"","true","2","1","7","3","group_B_A",4,0,46,NA,"7",21,2
"257","ds_main_response",1216,"1201149",2221.7000002861,"",FALSE,"[0,3,1,1]","[0,3,1,1]","digit_span",FALSE,"false","",NA,NA,"",NA,"",4,1,91,22,"8",NA,0
"258","ds_main_response",1225,"1204612",1388.40000009537,"",FALSE,"[0,0,0,9]","[0,0,0,9]","digit_span",FALSE,"false","",NA,NA,"",NA,"",4,1,92,22,"8",NA,0
"259","ds_main_response",1234,"1208349",1680.2000002861,"",FALSE,"[4,7,2,0]","[4,7,2,0]","digit_span",FALSE,"false","",NA,NA,"",NA,"",4,1,93,22,"8",NA,0
"260","ds_main_response",1243,"1212464",2029.90000009537,"",FALSE,"[8,4,3,6]","[8,4,3,6]","digit_span",FALSE,"false","",NA,NA,"",NA,"",4,1,94,22,"8",NA,0
"261","ds_main_response",1252,"1215907",1375.09999990463,"",FALSE,"[9,0,0,9]","[9,0,0,9]","digit_span",FALSE,"false","",NA,NA,"",NA,"",4,1,95,22,"8",NA,0
"262","ds_main_response",1261,"1220323",2349.09999990463,"",FALSE,"[4,2,7,1]","[4,2,7,1]","digit_span",FALSE,"false","",NA,NA,"",NA,"",4,1,96,22,"8",NA,0
"263","ds_main_response",1270,"1224226",1824.7999997139,"",FALSE,"[5,9,2,8]","[5,9,2,8]","digit_span",FALSE,"false","",NA,NA,"",NA,"",4,1,97,22,"8",NA,0
"264","ds_main_response",1279,"1227845",1541.5,"",FALSE,"[8,6,6,6]","[8,6,6,6]","digit_span",FALSE,"false","",NA,NA,"",NA,"",4,1,98,22,"8",NA,0
"265","ds_main_response",1288,"1232556",2629.69999980927,"",FALSE,"[3,5,3,0]","[3,5,3,0]","digit_span",FALSE,"false","",NA,NA,"",NA,"",4,1,99,22,"8",NA,0
"266","ds_main_response",1297,"1236246",1620,"",FALSE,"[5,7,1,4]","[5,7,1,4]","digit_span",FALSE,"false","",NA,NA,"",NA,"",4,1,100,22,"8",NA,0
"267","rt_main_trials",1299,"1240795",5000,"",FALSE,"null","","rest_task",TRUE,"","false","1","0","null","1","block_same_same",4,0,47,NA,"8",22,9
"268","rt_main_trials",1300,"1242320",5000,"",FALSE,"null","","rest_task",TRUE,"","false","1","1","null","1","block_same_same",4,0,48,NA,"8",22,9
"269","rt_main_trials",1301,"1243854",402,"",FALSE,"1","","rest_task",FALSE,"","false","1","2","null","1","block_same_same",4,1,49,NA,"8",22,9
"270","rt_main_trials",1302,"1245390",60,"",FALSE,"1","","rest_task",FALSE,"","false","2","3","null","1","block_same_same",4,0,50,NA,"8",22,9
"271","rt_main_trials",1303,"1246924",297,"",FALSE,"2","","rest_task",FALSE,"","false","2","4","null","1","block_same_same",4,1,51,NA,"8",22,9
"272","rt_main_trials",1304,"1248458",244,"",FALSE,"2","","rest_task",FALSE,"","false","1","5","null","1","block_same_same",4,0,52,NA,"8",22,9
"273","rt_main_trials",1305,"1249981",104,"",FALSE,"1","","rest_task",FALSE,"","false","1","6","null","1","block_same_same",4,1,53,NA,"8",22,9
"274","rt_main_trials",1306,"1251509",140,"",FALSE,"1","","rest_task",FALSE,"","false","2","7","null","1","block_same_same",4,0,54,NA,"8",22,9
"275","rt_main_trials",1307,"1252464",5000,"",FALSE,"null","","rest_task",TRUE,"","true","2","8","null","1","block_same_same",4,0,55,NA,"8",22,9
"276","ds_main_response",1317,"1258595",3044.19999980927,"",FALSE,"[7,8,0,1]","[7,8,0,1]","digit_span",FALSE,"false","",NA,NA,"",NA,"",4,1,101,23,"8",NA,0
"277","ds_main_response",1326,"1262346",1671.7000002861,"",FALSE,"[0,8,5,5]","[0,8,5,5]","digit_span",FALSE,"false","",NA,NA,"",NA,"",4,1,102,23,"8",NA,0
"278","ds_main_response",1335,"1266317",1904.90000009537,"",FALSE,"[1,9,7,0]","[1,9,7,0]","digit_span",FALSE,"false","",NA,NA,"",NA,"",4,1,103,23,"8",NA,0
"279","ds_main_response",1344,"1269685",1302.69999980927,"",FALSE,"[8,0,8,0]","[8,0,8,0]","digit_span",FALSE,"false","",NA,NA,"",NA,"",4,1,104,23,"8",NA,0
"280","ds_main_response",1353,"1273534",1789.30000019073,"",FALSE,"[4,7,9,1]","[4,7,9,1]","digit_span",FALSE,"false","",NA,NA,"",NA,"",4,1,105,23,"8",NA,0
"281","ds_main_response",1362,"1277316",1707.19999980927,"",FALSE,"[4,7,0,7]","[4,7,0,7]","digit_span",FALSE,"false","",NA,NA,"",NA,"",4,1,106,23,"8",NA,0
"282","ds_main_response",1371,"1281181",1802.80000019073,"",FALSE,"[4,4,7,5]","[4,4,7,5]","digit_span",FALSE,"false","",NA,NA,"",NA,"",4,1,107,23,"8",NA,0
"283","ds_main_response",1380,"1285514",2242.2000002861,"",FALSE,"[2,4,2,3]","[2,4,2,3]","digit_span",FALSE,"false","",NA,NA,"",NA,"",4,1,108,23,"8",NA,0
"284","ds_main_response",1389,"1289812",2204.80000019073,"",FALSE,"[3,8,9,2]","[3,8,9,2]","digit_span",FALSE,"false","",NA,NA,"",NA,"",4,1,109,23,"8",NA,0
"285","ds_main_response",1398,"1293677",1772.80000019073,"",FALSE,"[4,1,6,5]","[4,1,6,5]","digit_span",FALSE,"false","",NA,NA,"",NA,"",4,1,110,23,"8",NA,0
"286","rt_main_trials",1400,"1298240",5000,"",FALSE,"null","","rest_task",TRUE,"","false","2","0","null","2","block_same_same",4,0,56,NA,"8",23,2
"287","rt_main_trials",1401,"1298561",5000,"",FALSE,"null","","rest_task",TRUE,"","true","1","1","null","2","block_same_same",4,0,57,NA,"8",23,2
"288","ds_main_response",1411,"1304144",2479.60000038147,"",FALSE,"[9,1,4,5]","[9,1,4,5]","digit_span",FALSE,"false","",NA,NA,"",NA,"",4,1,111,24,"8",NA,0
"289","ds_main_response",1420,"1308466",2237.5,"",FALSE,"[8,6,2,4]","[8,6,2,4]","digit_span",FALSE,"false","",NA,NA,"",NA,"",4,1,112,24,"8",NA,0
"290","ds_main_response",1429,"1312785",2195.89999961853,"",FALSE,"[6,3,1,8]","[6,3,1,8]","digit_span",FALSE,"false","",NA,NA,"",NA,"",4,1,113,24,"8",NA,0
"291","ds_main_response",1438,"1316642",1757.69999980927,"",FALSE,"[6,8,2,5]","[6,8,2,5]","digit_span",FALSE,"false","",NA,NA,"",NA,"",4,1,114,24,"8",NA,0
"292","ds_main_response",1447,"1320642",1894.59999990463,"",FALSE,"[0,6,5,4]","[0,6,5,4]","digit_span",FALSE,"false","",NA,NA,"",NA,"",4,1,115,24,"8",NA,0
"293","ds_main_response",1456,"1324423",1688.5,"",FALSE,"[5,3,2,0]","[5,3,2,0]","digit_span",FALSE,"false","",NA,NA,"",NA,"",4,1,116,24,"8",NA,0
"294","ds_main_response",1465,"1328348",1842.59999990463,"",FALSE,"[0,6,0,9]","[6,0,6,9]","digit_span",FALSE,"false","",NA,NA,"",NA,"",4,0,117,24,"8",NA,0
"295","ds_main_response",1474,"1334239",3814.90000009537,"",FALSE,"[0,9,1,0]","[9,1,0,3]","digit_span",FALSE,"false","",NA,NA,"",NA,"",4,0,118,24,"8",NA,0
"296","ds_main_response",1483,"1338658",2312.2000002861,"",FALSE,"[6,3,9,8]","[6,3,9,8]","digit_span",FALSE,"false","",NA,NA,"",NA,"",4,1,119,24,"8",NA,0
"297","ds_main_response",1492,"1342360",1604.09999990463,"",FALSE,"[6,6,8,4]","[6,6,8,4]","digit_span",FALSE,"false","",NA,NA,"",NA,"",4,1,120,24,"8",NA,0
"298","rt_main_trials",1494,"1346801",5000,"",FALSE,"null","","rest_task",TRUE,"","true","1","0","8","3","group_A_A",4,0,58,NA,"8",24,1
"299","ds_main_response",1504,"1352929",2960.10000038147,"",FALSE,"[0,3,1,1]","[0,3,1,1]","digit_span",FALSE,"false","",NA,NA,"",NA,"",4,1,121,25,"9",NA,0
"300","ds_main_response",1513,"1356869",1810.69999980926,"",FALSE,"[0,0,0,9]","[0,0,0,9]","digit_span",FALSE,"false","",NA,NA,"",NA,"",4,1,122,25,"9",NA,0
"301","ds_main_response",1522,"1361109",2113.7000002861,"",FALSE,"[4,7,2,0]","[4,7,2,0]","digit_span",FALSE,"false","",NA,NA,"",NA,"",4,1,123,25,"9",NA,0
"302","ds_main_response",1531,"1365243",2019.5,"",FALSE,"[8,4,3,6]","[8,4,3,6]","digit_span",FALSE,"false","",NA,NA,"",NA,"",4,1,124,25,"9",NA,0
"303","ds_main_response",1540,"1369085",1709.19999980927,"",FALSE,"[9,0,0,9]","[9,0,0,9]","digit_span",FALSE,"false","",NA,NA,"",NA,"",4,1,125,25,"9",NA,0
"304","ds_main_response",1549,"1373167",1957.7999997139,"",FALSE,"[4,2,7,1]","[4,2,7,1]","digit_span",FALSE,"false","",NA,NA,"",NA,"",4,1,126,25,"9",NA,0
"305","ds_main_response",1558,"1377391",2086.69999980927,"",FALSE,"[5,9,2,8]","[5,9,2,8]","digit_span",FALSE,"false","",NA,NA,"",NA,"",4,1,127,25,"9",NA,0
"306","ds_main_response",1567,"1381322",1816.39999961853,"",FALSE,"[8,6,6,6]","[8,6,6,6]","digit_span",FALSE,"false","",NA,NA,"",NA,"",4,1,128,25,"9",NA,0
"307","ds_main_response",1576,"1385786",2332.30000019073,"",FALSE,"[3,5,3,0]","[3,5,3,0]","digit_span",FALSE,"false","",NA,NA,"",NA,"",4,1,129,25,"9",NA,0
"308","ds_main_response",1585,"1390010",2085.09999990463,"",FALSE,"[5,7,1,4]","[5,7,1,4]","digit_span",FALSE,"false","",NA,NA,"",NA,"",4,1,130,25,"9",NA,0
"309","rt_main_trials",1587,"1394580",5000,"",FALSE,"null","","rest_task",TRUE,"","false","1","0","null","1","block_same_same",4,0,59,NA,"9",25,9
"310","rt_main_trials",1588,"1396112",758,"",FALSE,"1","","rest_task",FALSE,"","false","1","1","null","1","block_same_same",4,1,60,NA,"9",25,9
"311","rt_main_trials",1589,"1397637",86,"",FALSE,"1","","rest_task",FALSE,"","false","1","2","null","1","block_same_same",4,1,61,NA,"9",25,9
"312","rt_main_trials",1590,"1399176",56,"",FALSE,"1","","rest_task",FALSE,"","false","2","3","null","1","block_same_same",4,0,62,NA,"9",25,9
"313","rt_main_trials",1591,"1400711",370,"",FALSE,"2","","rest_task",FALSE,"","false","2","4","null","1","block_same_same",4,1,63,NA,"9",25,9
"314","rt_main_trials",1592,"1402251",206,"",FALSE,"2","","rest_task",FALSE,"","false","1","5","null","1","block_same_same",4,0,64,NA,"9",25,9
"315","rt_main_trials",1593,"1403783",266,"",FALSE,"1","","rest_task",FALSE,"","false","1","6","null","1","block_same_same",4,1,65,NA,"9",25,9
"316","rt_main_trials",1594,"1405318",254,"",FALSE,"1","","rest_task",FALSE,"","false","2","7","null","1","block_same_same",4,0,66,NA,"9",25,9
"317","rt_main_trials",1595,"1405876",5000,"",FALSE,"null","","rest_task",TRUE,"","true","2","8","null","1","block_same_same",4,0,67,NA,"9",25,9
"318","ds_main_response",1605,"1411205",2161.5,"",FALSE,"[7,8,0,1]","[7,8,0,1]","digit_span",FALSE,"false","",NA,NA,"",NA,"",4,1,131,26,"9",NA,0
"319","ds_main_response",1614,"1415080",1767,"",FALSE,"[0,8,5,5]","[0,8,5,5]","digit_span",FALSE,"false","",NA,NA,"",NA,"",4,1,132,26,"9",NA,0
"320","ds_main_response",1623,"1419237",2043.19999980926,"",FALSE,"[1,9,7,0]","[1,9,7,0]","digit_span",FALSE,"false","",NA,NA,"",NA,"",4,1,133,26,"9",NA,0
"321","ds_main_response",1632,"1422594",1238.09999990463,"",FALSE,"[8,0,8,0]","[8,0,8,0]","digit_span",FALSE,"false","",NA,NA,"",NA,"",4,1,134,26,"9",NA,0
"322","ds_main_response",1641,"1427108",2343.7999997139,"",FALSE,"[4,7,9,1]","[4,7,9,1]","digit_span",FALSE,"false","",NA,NA,"",NA,"",4,1,135,26,"9",NA,0
"323","ds_main_response",1650,"1431056",1824.2999997139,"",FALSE,"[4,7,0,7]","[4,7,0,7]","digit_span",FALSE,"false","",NA,NA,"",NA,"",4,1,136,26,"9",NA,0
"324","ds_main_response",1659,"1434879",1707.39999961853,"",FALSE,"[4,4,7,5]","[4,4,7,5]","digit_span",FALSE,"false","",NA,NA,"",NA,"",4,1,137,26,"9",NA,0
"325","ds_main_response",1668,"1441219",4200,"",FALSE,"[]","[2,4,2,3]","digit_span",TRUE,"false","",NA,NA,"",NA,"",4,0,138,26,"9",NA,0
"326","ds_main_response",1677,"1446037",2625.59999990463,"",FALSE,"[3,8,9,2]","[3,8,9,2]","digit_span",FALSE,"false","",NA,NA,"",NA,"",4,1,139,26,"9",NA,0
"327","ds_main_response",1686,"1450134",1911.30000019073,"",FALSE,"[4,1,6,5]","[4,1,6,5]","digit_span",FALSE,"false","",NA,NA,"",NA,"",4,1,140,26,"9",NA,0
"328","rt_main_trials",1688,"1454699",5000,"",FALSE,"null","","rest_task",TRUE,"","false","2","0","null","2","block_same_same",4,0,68,NA,"9",26,2
"329","rt_main_trials",1689,"1455041",5000,"",FALSE,"null","","rest_task",TRUE,"","true","1","1","null","2","block_same_same",4,0,69,NA,"9",26,2
"330","ds_main_response",1699,"1461041",2825.7999997139,"",FALSE,"[9,1,4,5]","[9,1,4,5]","digit_span",FALSE,"false","",NA,NA,"",NA,"",4,1,141,27,"9",NA,0
"331","ds_main_response",1708,"1465032",1826.69999980926,"",FALSE,"[8,6,2,4]","[8,6,2,4]","digit_span",FALSE,"false","",NA,NA,"",NA,"",4,1,142,27,"9",NA,0
"332","ds_main_response",1717,"1469133",1967.40000009537,"",FALSE,"[6,3,1,8]","[6,3,1,8]","digit_span",FALSE,"false","",NA,NA,"",NA,"",4,1,143,27,"9",NA,0
"333","ds_main_response",1726,"1472940",1639.40000009537,"",FALSE,"[6,8,2,5]","[6,8,2,5]","digit_span",FALSE,"false","",NA,NA,"",NA,"",4,1,144,27,"9",NA,0
"334","ds_main_response",1735,"1476726",1645.40000009537,"",FALSE,"[0,6,5,4]","[0,6,5,4]","digit_span",FALSE,"false","",NA,NA,"",NA,"",4,1,145,27,"9",NA,0
"335","ds_main_response",1744,"1480712",1817.59999990463,"",FALSE,"[5,3,2,0]","[5,3,2,0]","digit_span",FALSE,"false","",NA,NA,"",NA,"",4,1,146,27,"9",NA,0
"336","ds_main_response",1753,"1484429",1562.39999961853,"",FALSE,"[6,0,6,9]","[6,0,6,9]","digit_span",FALSE,"false","",NA,NA,"",NA,"",4,1,147,27,"9",NA,0
"337","ds_main_response",1762,"1489060",2470.40000009537,"",FALSE,"[9,1,0,3]","[9,1,0,3]","digit_span",FALSE,"false","",NA,NA,"",NA,"",4,1,148,27,"9",NA,0
"338","ds_main_response",1771,"1493304",2059.5,"",FALSE,"[6,3,9,8]","[6,3,9,8]","digit_span",FALSE,"false","",NA,NA,"",NA,"",4,1,149,27,"9",NA,0
"339","ds_main_response",1780,"1497009",1511.59999990463,"",FALSE,"[6,6,8,4]","[6,6,8,4]","digit_span",FALSE,"false","",NA,NA,"",NA,"",4,1,150,27,"9",NA,0
"340","rt_main_trials",1782,"1501571",5000,"",FALSE,"null","","rest_task",TRUE,"","false","2","0","9","6","group_A_B",4,0,70,NA,"9",27,2
"341","rt_main_trials",1783,"1502455",5000,"",FALSE,"null","","rest_task",TRUE,"","true","1","1","9","6","group_A_B",4,0,71,NA,"9",27,2
"342","sr_main_response",1786,"1507288",1762.2000002861,"",FALSE,"","[1,2,12,10]","spatial_recall",FALSE,"false","",NA,NA,"",NA,"",4,1,121,28,"10",NA,0
"343","sr_main_response",1788,"1511746",2409.5,"",FALSE,"","[7,4,15,0]","spatial_recall",FALSE,"false","",NA,NA,"",NA,"",4,0,122,28,"10",NA,0
"344","sr_main_response",1790,"1515620",1828.5,"",FALSE,"","[5,10,15,0]","spatial_recall",FALSE,"false","",NA,NA,"",NA,"",4,1,123,28,"10",NA,0
"345","sr_main_response",1792,"1520011",2345.40000009537,"",FALSE,"","[13,1,15,12]","spatial_recall",FALSE,"false","",NA,NA,"",NA,"",4,1,124,28,"10",NA,0
"346","sr_main_response",1794,"1523968",1915.40000009537,"",FALSE,"","[13,2,0,6]","spatial_recall",FALSE,"false","",NA,NA,"",NA,"",4,1,125,28,"10",NA,0
"347","sr_main_response",1796,"1530212",4200.90000009537,"",FALSE,"","[8,15,7,14]","spatial_recall",TRUE,"false","",NA,NA,"",NA,"",4,0,126,28,"10",NA,0
"348","sr_main_response",1798,"1534426",2164,"",FALSE,"","[7,8,10,13]","spatial_recall",FALSE,"false","",NA,NA,"",NA,"",4,0,127,28,"10",NA,0
"349","sr_main_response",1800,"1538265",1794.09999990463,"",FALSE,"","[6,11,2,7]","spatial_recall",FALSE,"false","",NA,NA,"",NA,"",4,1,128,28,"10",NA,0
"350","sr_main_response",1802,"1542055",1746.5,"",FALSE,"","[5,1,4,8]","spatial_recall",FALSE,"false","",NA,NA,"",NA,"",4,1,129,28,"10",NA,0
"351","sr_main_response",1804,"1546030",1930.5,"",FALSE,"","[2,7,12,1]","spatial_recall",FALSE,"false","",NA,NA,"",NA,"",4,1,130,28,"10",NA,0
"352","rt_main_trials",1806,"1550583",5000,"",FALSE,"2","","rest_task",TRUE,"","false","2","0","null","1","block_same_same",4,0,72,NA,"10",28,8
"353","rt_main_trials",1807,"1552119",544,"",FALSE,"1","","rest_task",FALSE,"","false","1","1","null","1","block_same_same",4,1,73,NA,"10",28,8
"354","rt_main_trials",1808,"1553654",5000,"",FALSE,"null","","rest_task",TRUE,"","false","1","2","null","1","block_same_same",4,0,74,NA,"10",28,8
"355","rt_main_trials",1809,"1555189",65,"",FALSE,"1","","rest_task",FALSE,"","false","1","3","null","1","block_same_same",4,1,75,NA,"10",28,8
"356","rt_main_trials",1810,"1556729",176,"",FALSE,"1","","rest_task",FALSE,"","false","2","4","null","1","block_same_same",4,0,76,NA,"10",28,8
"357","rt_main_trials",1811,"1558263",286,"",FALSE,"2","","rest_task",FALSE,"","false","2","5","null","1","block_same_same",4,1,77,NA,"10",28,8
"358","rt_main_trials",1812,"1559790",421,"",FALSE,"2","","rest_task",FALSE,"","false","2","6","null","1","block_same_same",4,1,78,NA,"10",28,8
"359","rt_main_trials",1813,"1560359",5000,"",FALSE,"null","","rest_task",TRUE,"","true","2","7","null","1","block_same_same",4,0,79,NA,"10",28,8
"360","sr_main_response",1816,"1565791",2356.10000038147,"",FALSE,"","[3,0,15,5]","spatial_recall",FALSE,"false","",NA,NA,"",NA,"",4,1,131,29,"10",NA,0
"361","sr_main_response",1818,"1569979",2142.5,"",FALSE,"","[13,7,12,5]","spatial_recall",FALSE,"false","",NA,NA,"",NA,"",4,1,132,29,"10",NA,0
"362","sr_main_response",1820,"1574043",2015.90000009537,"",FALSE,"","[1,3,4,9]","spatial_recall",FALSE,"false","",NA,NA,"",NA,"",4,1,133,29,"10",NA,0
"363","sr_main_response",1822,"1577923",1828,"",FALSE,"","[1,15,8,4]","spatial_recall",FALSE,"false","",NA,NA,"",NA,"",4,1,134,29,"10",NA,0
"364","sr_main_response",1824,"1583641",3671.89999961853,"",FALSE,"","[11,8,12,1]","spatial_recall",FALSE,"false","",NA,NA,"",NA,"",4,1,135,29,"10",NA,0
"365","sr_main_response",1826,"1587408",1723.59999990463,"",FALSE,"","[5,15,7,13]","spatial_recall",FALSE,"false","",NA,NA,"",NA,"",4,1,136,29,"10",NA,0
"366","sr_main_response",1828,"1591069",1614.5,"",FALSE,"","[4,5,8,6]","spatial_recall",FALSE,"false","",NA,NA,"",NA,"",4,1,137,29,"10",NA,0
"367","sr_main_response",1830,"1594732",1618.80000019073,"",FALSE,"","[14,2,7,9]","spatial_recall",FALSE,"false","",NA,NA,"",NA,"",4,1,138,29,"10",NA,0
"368","sr_main_response",1832,"1598656",1865.69999980926,"",FALSE,"","[15,9,3,2]","spatial_recall",FALSE,"false","",NA,NA,"",NA,"",4,1,139,29,"10",NA,0
"369","sr_main_response",1834,"1602587",1875.30000019073,"",FALSE,"","[11,2,13,3]","spatial_recall",FALSE,"false","",NA,NA,"",NA,"",4,1,140,29,"10",NA,0
"370","rt_main_trials",1836,"1607160",5000,"",FALSE,"null","","rest_task",TRUE,"","false","1","0","null","2","block_same_same",4,0,80,NA,"10",29,2
"371","rt_main_trials",1837,"1608122",5000,"",FALSE,"null","","rest_task",TRUE,"","true","2","1","null","2","block_same_same",4,0,81,NA,"10",29,2
"372","sr_main_response",1840,"1613157",1959.40000009537,"",FALSE,"","[3,1,10,15]","spatial_recall",FALSE,"false","",NA,NA,"",NA,"",4,1,141,30,"10",NA,0
"373","sr_main_response",1842,"1617052",1847.69999980926,"",FALSE,"","[7,0,6,1]","spatial_recall",FALSE,"false","",NA,NA,"",NA,"",4,1,142,30,"10",NA,0
"374","sr_main_response",1844,"1621001",1904.5,"",FALSE,"","[4,10,8,3]","spatial_recall",FALSE,"false","",NA,NA,"",NA,"",4,1,143,30,"10",NA,0
"375","sr_main_response",1846,"1624922",1874.30000019073,"",FALSE,"","[4,15,9,1]","spatial_recall",FALSE,"false","",NA,NA,"",NA,"",4,1,144,30,"10",NA,0
"376","sr_main_response",1848,"1628903",1936,"",FALSE,"","[13,11,8,14]","spatial_recall",FALSE,"false","",NA,NA,"",NA,"",4,1,145,30,"10",NA,0
"377","sr_main_response",1850,"1633598",2647.59999990463,"",FALSE,"","[0,15,12,14]","spatial_recall",FALSE,"false","",NA,NA,"",NA,"",4,1,146,30,"10",NA,0
"378","sr_main_response",1852,"1637471",1828.40000009537,"",FALSE,"","[9,5,3,1]","spatial_recall",FALSE,"false","",NA,NA,"",NA,"",4,1,147,30,"10",NA,0
"379","sr_main_response",1854,"1641493",1973.5,"",FALSE,"","[7,11,0,5]","spatial_recall",FALSE,"false","",NA,NA,"",NA,"",4,1,148,30,"10",NA,0
"380","sr_main_response",1856,"1645403",1864.5,"",FALSE,"","[3,10,11,0]","spatial_recall",FALSE,"false","",NA,NA,"",NA,"",4,1,149,30,"10",NA,0
"381","sr_main_response",1858,"1649644",2193.30000019073,"",FALSE,"","[7,10,3,15]","spatial_recall",FALSE,"false","",NA,NA,"",NA,"",4,1,150,30,"10",NA,0
"382","rt_main_trials",1860,"1653811",5000,"",FALSE,"null","","rest_task",TRUE,"","true","2","0","10","3","group_B_A",4,0,82,NA,"10",30,1
"383","ds_main_response",78,"198340",2450.79999999702,"",FALSE,"[0,1,0,5]","[0,1,5,0]","digit_span",FALSE,"false","",NA,NA,"",NA,"",5,0,1,1,"1",NA,0
"384","ds_main_response",87,"202756",2429.20000000298,"",FALSE,"[1,5,7,2]","[1,5,7,2]","digit_span",FALSE,"false","",NA,NA,"",NA,"",5,1,2,1,"1",NA,0
"385","ds_main_response",96,"207176",2465.29999999702,"",FALSE,"[1,7,6,6]","[1,6,7,6]","digit_span",FALSE,"false","",NA,NA,"",NA,"",5,0,3,1,"1",NA,0
"386","ds_main_response",105,"211186",2018.19999998808,"",FALSE,"[9,6,5,1]","[9,6,5,1]","digit_span",FALSE,"false","",NA,NA,"",NA,"",5,1,4,1,"1",NA,0
"387","ds_main_response",114,"215900",2748.40000000596,"",FALSE,"[2,9,6,5]","[2,9,6,5]","digit_span",FALSE,"false","",NA,NA,"",NA,"",5,1,5,1,"1",NA,0
"388","ds_main_response",123,"220302",2452.59999999404,"",FALSE,"[9,5,8,2]","[9,5,8,2]","digit_span",FALSE,"false","",NA,NA,"",NA,"",5,1,6,1,"1",NA,0
"389","ds_main_response",132,"226291",4011.29999999702,"",FALSE,"[7,1,0,2]","[7,1,0,2]","digit_span",FALSE,"false","",NA,NA,"",NA,"",5,1,7,1,"1",NA,0
"390","ds_main_response",141,"230536",2266.5,"",FALSE,"[4,2,1,8]","[4,2,1,8]","digit_span",FALSE,"false","",NA,NA,"",NA,"",5,1,8,1,"1",NA,0
"391","ds_main_response",150,"234671",2164,"",FALSE,"[6,0,1,6]","[6,0,1,6]","digit_span",FALSE,"false","",NA,NA,"",NA,"",5,1,9,1,"1",NA,0
"392","ds_main_response",159,"238956",2296.20000000298,"",FALSE,"[1,6,9,3]","[1,6,9,3]","digit_span",FALSE,"false","",NA,NA,"",NA,"",5,1,10,1,"1",NA,0
"393","rt_main_trials",161,"243476",5000,"",FALSE,"null","","rest_task",TRUE,"","false","1","0","null","1","block_same_same",5,0,1,NA,"1",1,3
"394","rt_main_trials",162,"244998",5000,"",FALSE,"null","","rest_task",TRUE,"","false","2","1","null","1","block_same_same",5,0,2,NA,"1",1,3
"395","rt_main_trials",163,"245930",5000,"",FALSE,"null","","rest_task",TRUE,"","true","1","2","null","1","block_same_same",5,0,3,NA,"1",1,3
"396","ds_main_response",173,"251160",2225.29999999702,"",FALSE,"[5,7,3,5]","[5,7,3,5]","digit_span",FALSE,"false","",NA,NA,"",NA,"",5,1,11,2,"1",NA,0
"397","ds_main_response",182,"256065",2873.30000001192,"",FALSE,"[9,7,0,5]","[9,7,0,5]","digit_span",FALSE,"false","",NA,NA,"",NA,"",5,1,12,2,"1",NA,0
"398","ds_main_response",191,"260458",2393.29999999702,"",FALSE,"[1,7,2,4]","[1,7,2,4]","digit_span",FALSE,"false","",NA,NA,"",NA,"",5,1,13,2,"1",NA,0
"399","ds_main_response",200,"264599",2168.19999998808,"",FALSE,"[8,2,6,4]","[8,6,9,2]","digit_span",FALSE,"false","",NA,NA,"",NA,"",5,0,14,2,"1",NA,0
"400","ds_main_response",209,"269910",3278,"",FALSE,"[3,8,9,7]","[3,8,9,7]","digit_span",FALSE,"false","",NA,NA,"",NA,"",5,1,15,2,"1",NA,0
"401","ds_main_response",218,"274066",2177.5,"",FALSE,"[1,1,6,1]","[1,1,6,1]","digit_span",FALSE,"false","",NA,NA,"",NA,"",5,1,16,2,"1",NA,0
"402","ds_main_response",227,"278905",2824.5,"",FALSE,"[2,7,1,3]","[2,7,1,3]","digit_span",FALSE,"false","",NA,NA,"",NA,"",5,1,17,2,"1",NA,0
"403","ds_main_response",236,"283158",2239.70000000298,"",FALSE,"[1,5,3,6]","[1,5,3,6]","digit_span",FALSE,"false","",NA,NA,"",NA,"",5,1,18,2,"1",NA,0
"404","ds_main_response",245,"287685",2546.10000000894,"",FALSE,"[8,5,5,2]","[8,5,5,2]","digit_span",FALSE,"false","",NA,NA,"",NA,"",5,1,19,2,"1",NA,0
"405","ds_main_response",254,"292641",2953.09999999404,"",FALSE,"[7,7,3,4]","[7,7,3,4]","digit_span",FALSE,"false","",NA,NA,"",NA,"",5,1,20,2,"1",NA,0
"406","rt_main_trials",256,"297162",5000,"",FALSE,"null","","rest_task",TRUE,"","false","1","0","null","2","block_same_same",5,0,4,NA,"1",2,3
"407","rt_main_trials",257,"298674",5000,"",FALSE,"null","","rest_task",TRUE,"","false","2","1","null","2","block_same_same",5,0,5,NA,"1",2,3
"408","rt_main_trials",258,"299796",5000,"",FALSE,"null","","rest_task",TRUE,"","true","2","2","null","2","block_same_same",5,0,6,NA,"1",2,3
"409","ds_main_response",268,"305327",2515.69999998808,"",FALSE,"[2,9,3,6]","[2,9,3,6]","digit_span",FALSE,"false","",NA,NA,"",NA,"",5,1,21,3,"1",NA,0
"410","ds_main_response",277,"309093",1728.09999999404,"",FALSE,"[4,4,4,5]","[4,4,4,5]","digit_span",FALSE,"false","",NA,NA,"",NA,"",5,1,22,3,"1",NA,0
"411","ds_main_response",286,"313003",1910.20000000298,"",FALSE,"[5,6,3,4]","[5,6,3,4]","digit_span",FALSE,"false","",NA,NA,"",NA,"",5,1,23,3,"1",NA,0
"412","ds_main_response",295,"316838",1817.70000000298,"",FALSE,"[3,4,5,1]","[3,4,5,1]","digit_span",FALSE,"false","",NA,NA,"",NA,"",5,1,24,3,"1",NA,0
"413","ds_main_response",304,"321853",2977,"",FALSE,"[3,2,2,9]","[9,2,9,0]","digit_span",FALSE,"false","",NA,NA,"",NA,"",5,0,25,3,"1",NA,0
"414","ds_main_response",313,"326490",2613.09999999404,"",FALSE,"[7,1,9,6]","[7,1,9,6]","digit_span",FALSE,"false","",NA,NA,"",NA,"",5,1,26,3,"1",NA,0
"415","ds_main_response",322,"330777",2241.70000000298,"",FALSE,"[2,1,3,8]","[2,1,3,8]","digit_span",FALSE,"false","",NA,NA,"",NA,"",5,1,27,3,"1",NA,0
"416","ds_main_response",331,"334835",2020.89999999106,"",FALSE,"[2,6,4,8]","[2,6,4,8]","digit_span",FALSE,"false","",NA,NA,"",NA,"",5,1,28,3,"1",NA,0
"417","ds_main_response",340,"338713",1818.29999999702,"",FALSE,"[8,8,3,7]","[8,8,3,7]","digit_span",FALSE,"false","",NA,NA,"",NA,"",5,1,29,3,"1",NA,0
"418","ds_main_response",349,"343231",2499.20000000298,"",FALSE,"[9,6,7,9]","[9,6,7,9]","digit_span",FALSE,"false","",NA,NA,"",NA,"",5,1,30,3,"1",NA,0
"419","rt_main_trials",351,"347498",5000,"",FALSE,"null","","rest_task",TRUE,"","true","1","0","1","3","group_A_B",5,0,7,NA,"1",3,1
"420","sr_main_response",354,"352902",2369.70000000298,"",FALSE,"","[12,10,9,1]","spatial_recall",FALSE,"false","",NA,NA,"",NA,"",5,1,1,4,"2",NA,0
"421","sr_main_response",356,"359123",4204.90000000596,"",FALSE,"","[0,15,3,5]","spatial_recall",TRUE,"false","",NA,NA,"",NA,"",5,0,2,4,"2",NA,0
"422","sr_main_response",358,"364007",2870,"",FALSE,"","[6,7,1,8]","spatial_recall",FALSE,"false","",NA,NA,"",NA,"",5,1,3,4,"2",NA,0
"423","sr_main_response",360,"368593",2572.90000000596,"",FALSE,"","[5,8,7,6]","spatial_recall",FALSE,"false","",NA,NA,"",NA,"",5,1,4,4,"2",NA,0
"424","sr_main_response",362,"373154",2546.59999999404,"",FALSE,"","[2,12,1,7]","spatial_recall",FALSE,"false","",NA,NA,"",NA,"",5,1,5,4,"2",NA,0
"425","sr_main_response",364,"377176",1994.70000000298,"",FALSE,"","[9,11,6,7]","spatial_recall",FALSE,"false","",NA,NA,"",NA,"",5,1,6,4,"2",NA,0
"426","sr_main_response",366,"381741",2539.40000000596,"",FALSE,"","[12,13,11,4]","spatial_recall",FALSE,"false","",NA,NA,"",NA,"",5,1,7,4,"2",NA,0
"427","sr_main_response",368,"386132",2375.40000000596,"",FALSE,"","[4,10,5,1]","spatial_recall",FALSE,"false","",NA,NA,"",NA,"",5,1,8,4,"2",NA,0
"428","sr_main_response",370,"390729",2583.29999999702,"",FALSE,"","[15,0,9,7]","spatial_recall",FALSE,"false","",NA,NA,"",NA,"",5,1,9,4,"2",NA,0
"429","sr_main_response",372,"394745",1999,"",FALSE,"","[13,14,10,8]","spatial_recall",FALSE,"false","",NA,NA,"",NA,"",5,1,10,4,"2",NA,0
"430","rt_main_trials",374,"399289",5000,"",FALSE,"null","","rest_task",TRUE,"","false","2","0","null","1","block_same_same",5,0,8,NA,"2",4,2
"431","rt_main_trials",375,"400035",5000,"",FALSE,"null","","rest_task",TRUE,"","true","2","1","null","1","block_same_same",5,0,9,NA,"2",4,2
"432","sr_main_response",378,"405792",2718.5,"",FALSE,"","[3,5,7,11]","spatial_recall",FALSE,"false","",NA,NA,"",NA,"",5,1,11,5,"2",NA,0
"433","sr_main_response",380,"409704",1894,"",FALSE,"","[9,10,5,4]","spatial_recall",FALSE,"false","",NA,NA,"",NA,"",5,1,12,5,"2",NA,0
"434","sr_main_response",382,"415925",4205.70000000298,"",FALSE,"","[12,2,6,0]","spatial_recall",TRUE,"false","",NA,NA,"",NA,"",5,0,13,5,"2",NA,0
"435","sr_main_response",384,"420714",2770.19999998808,"",FALSE,"","[12,11,1,3]","spatial_recall",FALSE,"false","",NA,NA,"",NA,"",5,1,14,5,"2",NA,0
"436","sr_main_response",386,"426794",4064.40000000596,"",FALSE,"","[11,1,5,13]","spatial_recall",FALSE,"false","",NA,NA,"",NA,"",5,1,15,5,"2",NA,0
"437","sr_main_response",388,"431393",2583.19999998808,"",FALSE,"","[9,8,1,6]","spatial_recall",FALSE,"false","",NA,NA,"",NA,"",5,1,16,5,"2",NA,0
"438","sr_main_response",390,"435795",2385.20000000298,"",FALSE,"","[7,14,6,4]","spatial_recall",FALSE,"false","",NA,NA,"",NA,"",5,1,17,5,"2",NA,0
"439","sr_main_response",392,"440713",2902.5,"",FALSE,"","[8,2,5,13]","spatial_recall",FALSE,"false","",NA,NA,"",NA,"",5,1,18,5,"2",NA,0
"440","sr_main_response",394,"445182",2453.79999999702,"",FALSE,"","[8,11,13,5]","spatial_recall",FALSE,"false","",NA,NA,"",NA,"",5,1,19,5,"2",NA,0
"441","sr_main_response",396,"449377",2178.29999999702,"",FALSE,"","[6,2,8,11]","spatial_recall",FALSE,"false","",NA,NA,"",NA,"",5,1,20,5,"2",NA,0
"442","rt_main_trials",398,"453906",5000,"",FALSE,"null","","rest_task",TRUE,"","false","1","0","null","2","block_same_same",5,0,10,NA,"2",5,7
"443","rt_main_trials",399,"455433",5000,"",FALSE,"null","","rest_task",TRUE,"","false","1","1","null","2","block_same_same",5,0,11,NA,"2",5,7
"444","rt_main_trials",400,"456951",5000,"",FALSE,"null","","rest_task",TRUE,"","false","1","2","null","2","block_same_same",5,0,12,NA,"2",5,7
"445","rt_main_trials",401,"458467",5000,"",FALSE,"null","","rest_task",TRUE,"","false","1","3","null","2","block_same_same",5,0,13,NA,"2",5,7
"446","rt_main_trials",402,"459988",5000,"",FALSE,"null","","rest_task",TRUE,"","false","2","4","null","2","block_same_same",5,0,14,NA,"2",5,7
"447","rt_main_trials",403,"461511",5000,"",FALSE,"null","","rest_task",TRUE,"","false","1","5","null","2","block_same_same",5,0,15,NA,"2",5,7
"448","rt_main_trials",404,"462375",5000,"",FALSE,"null","","rest_task",TRUE,"","true","2","6","null","2","block_same_same",5,0,16,NA,"2",5,7
"449","sr_main_response",407,"468512",3093.59999999404,"",FALSE,"","[2,1,5,12]","spatial_recall",FALSE,"false","",NA,NA,"",NA,"",5,1,21,6,"2",NA,0
"450","sr_main_response",409,"472895",2367.10000000894,"",FALSE,"","[6,7,15,2]","spatial_recall",FALSE,"false","",NA,NA,"",NA,"",5,1,22,6,"2",NA,0
"451","sr_main_response",411,"477318",2407.5,"",FALSE,"","[3,1,4,13]","spatial_recall",FALSE,"false","",NA,NA,"",NA,"",5,1,23,6,"2",NA,0
"452","sr_main_response",413,"481670",2337.19999998808,"",FALSE,"","[5,12,10,14]","spatial_recall",FALSE,"false","",NA,NA,"",NA,"",5,1,24,6,"2",NA,0
"453","sr_main_response",415,"485865",2178.20000000298,"",FALSE,"","[7,15,14,1]","spatial_recall",FALSE,"false","",NA,NA,"",NA,"",5,1,25,6,"2",NA,0
"454","sr_main_response",417,"490139",2257.79999999702,"",FALSE,"","[13,6,0,1]","spatial_recall",FALSE,"false","",NA,NA,"",NA,"",5,1,26,6,"2",NA,0
"455","sr_main_response",419,"494665",2510.39999999106,"",FALSE,"","[8,9,7,3]","spatial_recall",FALSE,"false","",NA,NA,"",NA,"",5,1,27,6,"2",NA,0
"456","sr_main_response",421,"500889",4206.60000000894,"",FALSE,"","[9,14,6,12]","spatial_recall",TRUE,"false","",NA,NA,"",NA,"",5,0,28,6,"2",NA,0
"457","sr_main_response",423,"505208",2301.59999999404,"",FALSE,"","[9,6,3,0]","spatial_recall",FALSE,"false","",NA,NA,"",NA,"",5,1,29,6,"2",NA,0
"458","sr_main_response",425,"509573",2348.90000000596,"",FALSE,"","[1,0,12,13]","spatial_recall",FALSE,"false","",NA,NA,"",NA,"",5,0,30,6,"2",NA,0
"459","rt_main_trials",427,"514104",5000,"",FALSE,"null","","rest_task",TRUE,"","false","1","0","2","3","group_B_A",5,0,17,NA,"2",6,5
"460","rt_main_trials",428,"515621",5000,"",FALSE,"null","","rest_task",TRUE,"","false","1","1","2","3","group_B_A",5,0,18,NA,"2",6,5
"461","rt_main_trials",429,"517135",5000,"",FALSE,"null","","rest_task",TRUE,"","false","1","2","2","3","group_B_A",5,0,19,NA,"2",6,5
"462","rt_main_trials",430,"518664",5000,"",FALSE,"null","","rest_task",TRUE,"","false","2","3","2","3","group_B_A",5,0,20,NA,"2",6,5
"463","rt_main_trials",431,"519495",5000,"",FALSE,"null","","rest_task",TRUE,"","true","1","4","2","3","group_B_A",5,0,21,NA,"2",6,5
"464","ds_main_response",441,"524852",2310.5,"",FALSE,"[0,1,5,0]","[0,1,5,0]","digit_span",FALSE,"false","",NA,NA,"",NA,"",5,1,31,7,"3",NA,0
"465","ds_main_response",450,"529237",2368.70000000298,"",FALSE,"[1,5,7,2]","[1,5,7,2]","digit_span",FALSE,"false","",NA,NA,"",NA,"",5,1,32,7,"3",NA,0
"466","ds_main_response",459,"533415",2160.30000001192,"",FALSE,"[1,6,7,6]","[1,6,7,6]","digit_span",FALSE,"false","",NA,NA,"",NA,"",5,1,33,7,"3",NA,0
"467","ds_main_response",468,"537514",2044.20000000298,"",FALSE,"[9,6,5,1]","[9,6,5,1]","digit_span",FALSE,"false","",NA,NA,"",NA,"",5,1,34,7,"3",NA,0
"468","ds_main_response",477,"541982",2409.09999999404,"",FALSE,"[2,9,6,5]","[2,9,6,5]","digit_span",FALSE,"false","",NA,NA,"",NA,"",5,1,35,7,"3",NA,0
"469","ds_main_response",486,"546212",2164.5,"",FALSE,"[9,5,8,2]","[9,5,8,2]","digit_span",FALSE,"false","",NA,NA,"",NA,"",5,1,36,7,"3",NA,0
"470","ds_main_response",495,"551079",2861.70000000298,"",FALSE,"[7,1,0,2]","[7,1,0,2]","digit_span",FALSE,"false","",NA,NA,"",NA,"",5,1,37,7,"3",NA,0
"471","ds_main_response",504,"554803",1686.09999999404,"",FALSE,"[4,2,1,8]","[4,2,1,8]","digit_span",FALSE,"false","",NA,NA,"",NA,"",5,1,38,7,"3",NA,0
"472","ds_main_response",513,"559418",2557.89999999106,"",FALSE,"[6,0,1,6]","[6,0,1,6]","digit_span",FALSE,"false","",NA,NA,"",NA,"",5,1,39,7,"3",NA,0
"473","ds_main_response",522,"563952",2484,"",FALSE,"[1,6,9,3]","[1,6,9,3]","digit_span",FALSE,"false","",NA,NA,"",NA,"",5,1,40,7,"3",NA,0
"474","rt_main_trials",524,"568488",5000,"",FALSE,"null","","rest_task",TRUE,"","false","1","0","null","1","block_same_same",5,0,22,NA,"3",7,4
"475","rt_main_trials",525,"570005",5000,"",FALSE,"null","","rest_task",TRUE,"","false","2","1","null","1","block_same_same",5,0,23,NA,"3",7,4
"476","rt_main_trials",526,"571529",5000,"",FALSE,"null","","rest_task",TRUE,"","false","1","2","null","1","block_same_same",5,0,24,NA,"3",7,4
"477","rt_main_trials",527,"572937",5000,"",FALSE,"null","","rest_task",TRUE,"","true","2","3","null","1","block_same_same",5,0,25,NA,"3",7,4
"478","ds_main_response",537,"578744",2779.90000000596,"",FALSE,"[5,7,3,5]","[5,7,3,5]","digit_span",FALSE,"false","",NA,NA,"",NA,"",5,1,41,8,"3",NA,0
"479","ds_main_response",546,"583160",2375.29999999702,"",FALSE,"[9,7,0,5]","[9,7,0,5]","digit_span",FALSE,"false","",NA,NA,"",NA,"",5,1,42,8,"3",NA,0
"480","ds_main_response",555,"587344",2155.09999999404,"",FALSE,"[1,7,2,4]","[1,7,2,4]","digit_span",FALSE,"false","",NA,NA,"",NA,"",5,1,43,8,"3",NA,0
"481","ds_main_response",564,"592290",2895.5,"",FALSE,"[6,8,2,6]","[8,6,9,2]","digit_span",FALSE,"false","",NA,NA,"",NA,"",5,0,44,8,"3",NA,0
"482","ds_main_response",573,"596804",2454.40000000596,"",FALSE,"[3,8,9,7]","[3,8,9,7]","digit_span",FALSE,"false","",NA,NA,"",NA,"",5,1,45,8,"3",NA,0
"483","ds_main_response",582,"601401",2539.20000000298,"",FALSE,"[1,1,6,1]","[1,1,6,1]","digit_span",FALSE,"false","",NA,NA,"",NA,"",5,1,46,8,"3",NA,0
"484","ds_main_response",591,"605548",2125.60000000894,"",FALSE,"[2,7,1,1]","[2,7,1,3]","digit_span",FALSE,"false","",NA,NA,"",NA,"",5,0,47,8,"3",NA,0
"485","ds_main_response",600,"610216",2632.20000000298,"",FALSE,"[1,5,3,6]","[1,5,3,6]","digit_span",FALSE,"false","",NA,NA,"",NA,"",5,1,48,8,"3",NA,0
"486","ds_main_response",609,"613860",1577.20000000298,"",FALSE,"[8,5,5,2]","[8,5,5,2]","digit_span",FALSE,"false","",NA,NA,"",NA,"",5,1,49,8,"3",NA,0
"487","ds_main_response",618,"618043",2117,"",FALSE,"[7,7,3,4]","[7,7,3,4]","digit_span",FALSE,"false","",NA,NA,"",NA,"",5,1,50,8,"3",NA,0
"488","rt_main_trials",620,"622572",5000,"",FALSE,"null","","rest_task",TRUE,"","false","1","0","null","2","block_same_same",5,0,26,NA,"3",8,3
"489","rt_main_trials",621,"624106",5000,"",FALSE,"null","","rest_task",TRUE,"","false","2","1","null","2","block_same_same",5,0,27,NA,"3",8,3
"490","rt_main_trials",622,"625004",5000,"",FALSE,"null","","rest_task",TRUE,"","true","2","2","null","2","block_same_same",5,0,28,NA,"3",8,3
"491","ds_main_response",632,"630920",2832.10000000894,"",FALSE,"[2,9,3,6]","[2,9,3,6]","digit_span",FALSE,"false","",NA,NA,"",NA,"",5,1,51,9,"3",NA,0
"492","ds_main_response",641,"634951",1970.90000000596,"",FALSE,"[4,4,4,5]","[4,4,4,5]","digit_span",FALSE,"false","",NA,NA,"",NA,"",5,1,52,9,"3",NA,0
"493","ds_main_response",650,"639516",2521.29999999702,"",FALSE,"[5,6,3,4]","[5,6,3,4]","digit_span",FALSE,"false","",NA,NA,"",NA,"",5,1,53,9,"3",NA,0
"494","ds_main_response",659,"643440",1874.70000000298,"",FALSE,"[3,4,5,1]","[3,4,5,1]","digit_span",FALSE,"false","",NA,NA,"",NA,"",5,1,54,9,"3",NA,0
"495","ds_main_response",668,"647781",2290.70000000298,"",FALSE,"[9,2,9,0]","[9,2,9,0]","digit_span",FALSE,"false","",NA,NA,"",NA,"",5,1,55,9,"3",NA,0
"496","ds_main_response",677,"652267",2423.39999999106,"",FALSE,"[9,7,1,9]","[7,1,9,6]","digit_span",FALSE,"false","",NA,NA,"",NA,"",5,0,56,9,"3",NA,0
"497","ds_main_response",686,"656303",1960.5,"",FALSE,"[2,1,3,8]","[2,1,3,8]","digit_span",FALSE,"false","",NA,NA,"",NA,"",5,1,57,9,"3",NA,0
"498","ds_main_response",695,"660611",2237.79999999702,"",FALSE,"[2,6,4,8]","[2,6,4,8]","digit_span",FALSE,"false","",NA,NA,"",NA,"",5,1,58,9,"3",NA,0
"499","ds_main_response",704,"664989",2310.5,"",FALSE,"[8,8,3,7]","[8,8,3,7]","digit_span",FALSE,"false","",NA,NA,"",NA,"",5,1,59,9,"3",NA,0
"500","ds_main_response",713,"670515",3453,"",FALSE,"[9,6,7,8]","[9,6,7,9]","digit_span",FALSE,"false","",NA,NA,"",NA,"",5,0,60,9,"3",NA,0
"501","rt_main_trials",715,"674630",5000,"",FALSE,"null","","rest_task",TRUE,"","true","1","0","3","3","group_A_B",5,0,29,NA,"3",9,1
"502","sr_main_response",718,"679962",2258.79999999702,"",FALSE,"","[15,6,4,14]","spatial_recall",FALSE,"false","",NA,NA,"",NA,"",5,1,31,10,"4",NA,0
"503","sr_main_response",720,"684271",2280.39999999106,"",FALSE,"","[12,0,14,3]","spatial_recall",FALSE,"false","",NA,NA,"",NA,"",5,0,32,10,"4",NA,0
"504","sr_main_response",722,"689981",3683.79999999702,"",FALSE,"","[14,1,6,2]","spatial_recall",FALSE,"false","",NA,NA,"",NA,"",5,0,33,10,"4",NA,0
"505","sr_main_response",724,"694350",2343.89999999106,"",FALSE,"","[7,8,6,4]","spatial_recall",FALSE,"false","",NA,NA,"",NA,"",5,1,34,10,"4",NA,0
"506","sr_main_response",726,"700580",4201.5,"",FALSE,"","[15,4,13,11]","spatial_recall",TRUE,"false","",NA,NA,"",NA,"",5,0,35,10,"4",NA,0
"507","sr_main_response",728,"704790",2179.10000000894,"",FALSE,"","[1,12,10,8]","spatial_recall",FALSE,"false","",NA,NA,"",NA,"",5,1,36,10,"4",NA,0
"508","sr_main_response",730,"710779",3961.90000000596,"",FALSE,"","[1,0,7,5]","spatial_recall",FALSE,"false","",NA,NA,"",NA,"",5,1,37,10,"4",NA,0
"509","sr_main_response",732,"715013",2208.70000000298,"",FALSE,"","[11,7,12,8]","spatial_recall",FALSE,"false","",NA,NA,"",NA,"",5,0,38,10,"4",NA,0
"510","sr_main_response",734,"719336",2299,"",FALSE,"","[9,5,1,15]","spatial_recall",FALSE,"false","",NA,NA,"",NA,"",5,0,39,10,"4",NA,0
"511","sr_main_response",736,"723737",2372.09999999404,"",FALSE,"","[3,5,12,2]","spatial_recall",FALSE,"false","",NA,NA,"",NA,"",5,1,40,10,"4",NA,0
"512","rt_main_trials",738,"728224",5000,"",FALSE,"null","","rest_task",TRUE,"","true","2","0","null","1","block_same_same",5,0,30,NA,"4",10,1
"513","sr_main_response",741,"733598",2322.59999999404,"",FALSE,"","[6,10,5,1]","spatial_recall",FALSE,"false","",NA,NA,"",NA,"",5,1,41,11,"4",NA,0
"514","sr_main_response",743,"737767",2143.20000000298,"",FALSE,"","[4,3,5,14]","spatial_recall",FALSE,"false","",NA,NA,"",NA,"",5,1,42,11,"4",NA,0
"515","sr_main_response",745,"742011",2217.39999999106,"",FALSE,"","[13,12,1,15]","spatial_recall",FALSE,"false","",NA,NA,"",NA,"",5,1,43,11,"4",NA,0
"516","sr_main_response",747,"746328",2288.5,"",FALSE,"","[9,8,15,3]","spatial_recall",FALSE,"false","",NA,NA,"",NA,"",5,0,44,11,"4",NA,0
"517","sr_main_response",749,"750629",2275.29999999702,"",FALSE,"","[11,1,4,6]","spatial_recall",FALSE,"false","",NA,NA,"",NA,"",5,1,45,11,"4",NA,0
"518","sr_main_response",751,"754968",2307.89999999106,"",FALSE,"","[3,12,0,5]","spatial_recall",FALSE,"false","",NA,NA,"",NA,"",5,1,46,11,"4",NA,0
"519","sr_main_response",753,"759514",2510.39999999106,"",FALSE,"","[4,0,6,12]","spatial_recall",FALSE,"false","",NA,NA,"",NA,"",5,1,47,11,"4",NA,0
"520","sr_main_response",755,"764053",2508.40000000596,"",FALSE,"","[14,15,4,1]","spatial_recall",FALSE,"false","",NA,NA,"",NA,"",5,1,48,11,"4",NA,0
"521","sr_main_response",757,"768060",1980.09999999404,"",FALSE,"","[3,13,1,4]","spatial_recall",FALSE,"false","",NA,NA,"",NA,"",5,1,49,11,"4",NA,0
"522","sr_main_response",759,"772744",2656.29999999702,"",FALSE,"","[10,15,0,12]","spatial_recall",FALSE,"false","",NA,NA,"",NA,"",5,0,50,11,"4",NA,0
"523","rt_main_trials",761,"777287",5000,"",FALSE,"null","","rest_task",TRUE,"","false","1","0","null","2","block_same_same",5,0,31,NA,"4",11,4
"524","rt_main_trials",762,"778803",5000,"",FALSE,"null","","rest_task",TRUE,"","false","1","1","null","2","block_same_same",5,0,32,NA,"4",11,4
"525","rt_main_trials",763,"780331",5000,"",FALSE,"null","","rest_task",TRUE,"","false","1","2","null","2","block_same_same",5,0,33,NA,"4",11,4
"526","rt_main_trials",764,"781169",5000,"",FALSE,"null","","rest_task",TRUE,"","true","1","3","null","2","block_same_same",5,0,34,NA,"4",11,4
"527","sr_main_response",767,"786483",2261.90000000596,"",FALSE,"","[15,7,3,4]","spatial_recall",FALSE,"false","",NA,NA,"",NA,"",5,1,51,12,"4",NA,0
"528","sr_main_response",769,"790732",2208.90000000596,"",FALSE,"","[14,8,3,7]","spatial_recall",FALSE,"false","",NA,NA,"",NA,"",5,1,52,12,"4",NA,0
"529","sr_main_response",771,"794900",2134.09999999404,"",FALSE,"","[11,3,9,4]","spatial_recall",FALSE,"false","",NA,NA,"",NA,"",5,0,53,12,"4",NA,0
"530","sr_main_response",773,"798600",1672.29999999702,"",FALSE,"","[15,10,14,11]","spatial_recall",FALSE,"false","",NA,NA,"",NA,"",5,1,54,12,"4",NA,0
"531","sr_main_response",775,"802820",2191.20000000298,"",FALSE,"","[5,0,6,1]","spatial_recall",FALSE,"false","",NA,NA,"",NA,"",5,0,55,12,"4",NA,0
"532","sr_main_response",777,"807070",2221.09999999404,"",FALSE,"","[1,5,14,4]","spatial_recall",FALSE,"false","",NA,NA,"",NA,"",5,1,56,12,"4",NA,0
"533","sr_main_response",779,"813303",4205,"",FALSE,"","[1,5,2,15]","spatial_recall",TRUE,"false","",NA,NA,"",NA,"",5,0,57,12,"4",NA,0
"534","sr_main_response",781,"817439",2107.79999999702,"",FALSE,"","[0,7,1,11]","spatial_recall",FALSE,"false","",NA,NA,"",NA,"",5,0,58,12,"4",NA,0
"535","sr_main_response",783,"821609",2140.40000000596,"",FALSE,"","[5,11,3,13]","spatial_recall",FALSE,"false","",NA,NA,"",NA,"",5,1,59,12,"4",NA,0
"536","sr_main_response",785,"826229",2582.40000000596,"",FALSE,"","[5,7,3,4]","spatial_recall",FALSE,"false","",NA,NA,"",NA,"",5,1,60,12,"4",NA,0
"537","rt_main_trials",787,"830583",5000,"",FALSE,"null","","rest_task",TRUE,"","true","2","0","4","3","group_B_B",5,0,35,NA,"4",12,1
"538","sr_main_response",790,"835681",2046,"",FALSE,"","[11,9,10,0]","spatial_recall",FALSE,"false","",NA,NA,"",NA,"",5,1,61,13,"5",NA,0
"539","sr_main_response",792,"839969",2260.39999999106,"",FALSE,"","[11,10,8,6]","spatial_recall",FALSE,"false","",NA,NA,"",NA,"",5,0,62,13,"5",NA,0
"540","sr_main_response",794,"844935",2937.79999999702,"",FALSE,"","[2,11,15,5]","spatial_recall",FALSE,"false","",NA,NA,"",NA,"",5,1,63,13,"5",NA,0
"541","sr_main_response",796,"849022",2050.79999999702,"",FALSE,"","[10,13,6,15]","spatial_recall",FALSE,"false","",NA,NA,"",NA,"",5,1,64,13,"5",NA,0
"542","sr_main_response",798,"853038",1984.40000000596,"",FALSE,"","[9,13,15,7]","spatial_recall",FALSE,"false","",NA,NA,"",NA,"",5,1,65,13,"5",NA,0
"543","sr_main_response",800,"857135",2068.09999999404,"",FALSE,"","[8,5,15,10]","spatial_recall",FALSE,"false","",NA,NA,"",NA,"",5,1,66,13,"5",NA,0
"544","sr_main_response",802,"861637",2472.20000000298,"",FALSE,"","[10,5,8,7]","spatial_recall",FALSE,"false","",NA,NA,"",NA,"",5,1,67,13,"5",NA,0
"545","sr_main_response",804,"866125",2444.20000000298,"",FALSE,"","[2,1,14,5]","spatial_recall",FALSE,"false","",NA,NA,"",NA,"",5,1,68,13,"5",NA,0
"546","sr_main_response",806,"870496",2338.90000000596,"",FALSE,"","[15,5,8,10]","spatial_recall",FALSE,"false","",NA,NA,"",NA,"",5,1,69,13,"5",NA,0
"547","sr_main_response",808,"874728",2191.5,"",FALSE,"","[4,14,1,6]","spatial_recall",FALSE,"false","",NA,NA,"",NA,"",5,1,70,13,"5",NA,0
"548","rt_main_trials",810,"878828",5000,"",FALSE,"null","","rest_task",TRUE,"","true","2","0","null","1","block_same_same",5,0,36,NA,"5",13,1
"549","sr_main_response",813,"883717",1840,"",FALSE,"","[10,7,11,2]","spatial_recall",FALSE,"false","",NA,NA,"",NA,"",5,1,71,14,"5",NA,0
"550","sr_main_response",815,"888160",2402.70000000298,"",FALSE,"","[6,10,0,11]","spatial_recall",FALSE,"false","",NA,NA,"",NA,"",5,1,72,14,"5",NA,0
"551","sr_main_response",817,"892182",1993.29999999702,"",FALSE,"","[13,10,1,0]","spatial_recall",FALSE,"false","",NA,NA,"",NA,"",5,1,73,14,"5",NA,0
"552","sr_main_response",819,"896146",1929.19999998808,"",FALSE,"","[12,5,6,14]","spatial_recall",FALSE,"false","",NA,NA,"",NA,"",5,1,74,14,"5",NA,0
"553","sr_main_response",821,"900120",1933.69999998808,"",FALSE,"","[12,13,11,10]","spatial_recall",FALSE,"false","",NA,NA,"",NA,"",5,1,75,14,"5",NA,0
"554","sr_main_response",823,"904442",2279.40000000596,"",FALSE,"","[14,3,10,5]","spatial_recall",FALSE,"false","",NA,NA,"",NA,"",5,1,76,14,"5",NA,0
"555","sr_main_response",825,"908453",1972.70000000298,"",FALSE,"","[14,15,2,5]","spatial_recall",FALSE,"false","",NA,NA,"",NA,"",5,1,77,14,"5",NA,0
"556","sr_main_response",827,"912644",2161.70000000298,"",FALSE,"","[3,14,5,9]","spatial_recall",FALSE,"false","",NA,NA,"",NA,"",5,0,78,14,"5",NA,0
"557","sr_main_response",829,"916434",1752,"",FALSE,"","[15,3,6,10]","spatial_recall",FALSE,"false","",NA,NA,"",NA,"",5,1,79,14,"5",NA,0
"558","sr_main_response",831,"920638",2174.10000000894,"",FALSE,"","[9,10,8,6]","spatial_recall",FALSE,"false","",NA,NA,"",NA,"",5,1,80,14,"5",NA,0
"559","rt_main_trials",833,"925195",5000,"",FALSE,"null","","rest_task",TRUE,"","false","1","0","null","2","block_same_same",5,0,37,NA,"5",14,10
"560","rt_main_trials",834,"926729",5000,"",FALSE,"null","","rest_task",TRUE,"","false","1","1","null","2","block_same_same",5,0,38,NA,"5",14,10
"561","rt_main_trials",835,"928260",5000,"",FALSE,"null","","rest_task",TRUE,"","false","1","2","null","2","block_same_same",5,0,39,NA,"5",14,10
"562","rt_main_trials",836,"929778",5000,"",FALSE,"null","","rest_task",TRUE,"","false","1","3","null","2","block_same_same",5,0,40,NA,"5",14,10
"563","rt_main_trials",837,"931302",5000,"",FALSE,"null","","rest_task",TRUE,"","false","2","4","null","2","block_same_same",5,0,41,NA,"5",14,10
"564","rt_main_trials",838,"932828",5000,"",FALSE,"null","","rest_task",TRUE,"","false","1","5","null","2","block_same_same",5,0,42,NA,"5",14,10
"565","rt_main_trials",839,"934354",5000,"",FALSE,"null","","rest_task",TRUE,"","false","2","6","null","2","block_same_same",5,0,43,NA,"5",14,10
"566","rt_main_trials",840,"935872",5000,"",FALSE,"null","","rest_task",TRUE,"","false","2","7","null","2","block_same_same",5,0,44,NA,"5",14,10
"567","rt_main_trials",841,"937398",5000,"",FALSE,"null","","rest_task",TRUE,"","false","2","8","null","2","block_same_same",5,0,45,NA,"5",14,10
"568","rt_main_trials",842,"937695",5000,"",FALSE,"null","","rest_task",TRUE,"","true","2","9","null","2","block_same_same",5,0,46,NA,"5",14,10
"569","sr_main_response",845,"942949",2200.69999998808,"",FALSE,"","[7,9,1,11]","spatial_recall",FALSE,"false","",NA,NA,"",NA,"",5,1,81,15,"5",NA,0
"570","sr_main_response",847,"947082",2098.90000000596,"",FALSE,"","[3,1,5,11]","spatial_recall",FALSE,"false","",NA,NA,"",NA,"",5,1,82,15,"5",NA,0
"571","sr_main_response",849,"951085",1964.39999999106,"",FALSE,"","[8,3,2,15]","spatial_recall",FALSE,"false","",NA,NA,"",NA,"",5,1,83,15,"5",NA,0
"572","sr_main_response",851,"955748",2624,"",FALSE,"","[13,11,2,14]","spatial_recall",FALSE,"false","",NA,NA,"",NA,"",5,1,84,15,"5",NA,0
"573","sr_main_response",853,"960386",2584.29999999702,"",FALSE,"","[1,5,10,2]","spatial_recall",FALSE,"false","",NA,NA,"",NA,"",5,1,85,15,"5",NA,0
"574","sr_main_response",855,"964489",2072.70000000298,"",FALSE,"","[7,14,0,12]","spatial_recall",FALSE,"false","",NA,NA,"",NA,"",5,1,86,15,"5",NA,0
"575","sr_main_response",857,"968886",2367.5,"",FALSE,"","[5,7,6,10]","spatial_recall",FALSE,"false","",NA,NA,"",NA,"",5,1,87,15,"5",NA,0
"576","sr_main_response",859,"973233",2316.5,"",FALSE,"","[1,13,8,2]","spatial_recall",FALSE,"false","",NA,NA,"",NA,"",5,1,88,15,"5",NA,0
"577","sr_main_response",861,"978791",3528.40000000596,"",FALSE,"","[1,15,5,14]","spatial_recall",FALSE,"false","",NA,NA,"",NA,"",5,0,89,15,"5",NA,0
"578","sr_main_response",863,"983072",2247.69999998808,"",FALSE,"","[9,4,2,1]","spatial_recall",FALSE,"false","",NA,NA,"",NA,"",5,1,90,15,"5",NA,0
"579","rt_main_trials",865,"987608",5000,"",FALSE,"null","","rest_task",TRUE,"","false","2","0","5","6","group_B_A",5,0,47,NA,"5",15,7
"580","rt_main_trials",866,"989139",5000,"",FALSE,"null","","rest_task",TRUE,"","false","2","1","5","6","group_B_A",5,0,48,NA,"5",15,7
"581","rt_main_trials",867,"990671",5000,"",FALSE,"null","","rest_task",TRUE,"","false","1","2","5","6","group_B_A",5,0,49,NA,"5",15,7
"582","rt_main_trials",868,"992195",157,"",FALSE,"2","","rest_task",FALSE,"","false","1","3","5","6","group_B_A",5,0,50,NA,"5",15,7
"583","rt_main_trials",869,"993719",5000,"",FALSE,"null","","rest_task",TRUE,"","false","2","4","5","6","group_B_A",5,0,51,NA,"5",15,7
"584","rt_main_trials",870,"995239",5000,"",FALSE,"null","","rest_task",TRUE,"","false","1","5","5","6","group_B_A",5,0,52,NA,"5",15,7
"585","rt_main_trials",871,"996045",5000,"",FALSE,"null","","rest_task",TRUE,"","true","2","6","5","6","group_B_A",5,0,53,NA,"5",15,7
"586","ds_main_response",881,"1002225",3069.40000000596,"",FALSE,"[0,1,5,0]","[0,1,5,0]","digit_span",FALSE,"false","",NA,NA,"",NA,"",5,1,61,16,"6",NA,0
"587","ds_main_response",890,"1006688",2375,"",FALSE,"[1,5,7,2]","[1,5,7,2]","digit_span",FALSE,"false","",NA,NA,"",NA,"",5,1,62,16,"6",NA,0
"588","ds_main_response",899,"1012982",4200,"",FALSE,"[]","[1,6,7,6]","digit_span",TRUE,"false","",NA,NA,"",NA,"",5,0,63,16,"6",NA,0
"589","ds_main_response",908,"1017379",2291.60000000894,"",FALSE,"[9,6,5,1]","[9,6,5,1]","digit_span",FALSE,"false","",NA,NA,"",NA,"",5,1,64,16,"6",NA,0
"590","ds_main_response",917,"1021408",1946.89999999106,"",FALSE,"[2,9,6,5]","[2,9,6,5]","digit_span",FALSE,"false","",NA,NA,"",NA,"",5,1,65,16,"6",NA,0
"591","ds_main_response",926,"1026084",2609.20000000298,"",FALSE,"[8,5,6,9]","[9,5,8,2]","digit_span",FALSE,"false","",NA,NA,"",NA,"",5,0,66,16,"6",NA,0
"592","ds_main_response",935,"1030956",2780,"",FALSE,"[7,1,0,2]","[7,1,0,2]","digit_span",FALSE,"false","",NA,NA,"",NA,"",5,1,67,16,"6",NA,0
"593","ds_main_response",944,"1035098",2051.5,"",FALSE,"[4,2,1,8]","[4,2,1,8]","digit_span",FALSE,"false","",NA,NA,"",NA,"",5,1,68,16,"6",NA,0
"594","ds_main_response",953,"1039498",2323.29999999702,"",FALSE,"[6,0,1,6]","[6,0,1,6]","digit_span",FALSE,"false","",NA,NA,"",NA,"",5,1,69,16,"6",NA,0
"595","ds_main_response",962,"1043557",1936.09999999404,"",FALSE,"[1,6,9,3]","[1,6,9,3]","digit_span",FALSE,"false","",NA,NA,"",NA,"",5,1,70,16,"6",NA,0
"596","rt_main_trials",964,"1048111",5000,"",FALSE,"null","","rest_task",TRUE,"","false","1","0","null","1","block_same_same",5,0,54,NA,"6",16,4
"597","rt_main_trials",965,"1049633",5000,"",FALSE,"null","","rest_task",TRUE,"","false","2","1","null","1","block_same_same",5,0,55,NA,"6",16,4
"598","rt_main_trials",966,"1051168",5000,"",FALSE,"null","","rest_task",TRUE,"","false","1","2","null","1","block_same_same",5,0,56,NA,"6",16,4
"599","rt_main_trials",967,"1052506",5000,"",FALSE,"null","","rest_task",TRUE,"","true","2","3","null","1","block_same_same",5,0,57,NA,"6",16,4
"600","ds_main_response",977,"1058424",2776.29999999702,"",FALSE,"[2,7,5,3]","[5,7,3,5]","digit_span",FALSE,"false","",NA,NA,"",NA,"",5,0,71,17,"6",NA,0
"601","ds_main_response",986,"1063708",3164.69999998808,"",FALSE,"[9,7,0,5]","[9,7,0,5]","digit_span",FALSE,"false","",NA,NA,"",NA,"",5,1,72,17,"6",NA,0
"602","ds_main_response",995,"1068018",2185.90000000596,"",FALSE,"[1,7,2,4]","[1,7,2,4]","digit_span",FALSE,"false","",NA,NA,"",NA,"",5,1,73,17,"6",NA,0
"603","ds_main_response",1004,"1072230",2089.40000000596,"",FALSE,"[8,6,9,2]","[8,6,9,2]","digit_span",FALSE,"false","",NA,NA,"",NA,"",5,1,74,17,"6",NA,0
"604","ds_main_response",1013,"1076614",2269.90000000596,"",FALSE,"[3,8,9,7]","[3,8,9,7]","digit_span",FALSE,"false","",NA,NA,"",NA,"",5,1,75,17,"6",NA,0
"605","ds_main_response",1022,"1080843",2115.59999999404,"",FALSE,"[1,1,6,1]","[1,1,6,1]","digit_span",FALSE,"false","",NA,NA,"",NA,"",5,1,76,17,"6",NA,0
"606","ds_main_response",1031,"1086851",3890.79999999702,"",FALSE,"[2,7,1,3]","[2,7,1,3]","digit_span",FALSE,"false","",NA,NA,"",NA,"",5,1,77,17,"6",NA,0
"607","ds_main_response",1040,"1091090",2095.59999999404,"",FALSE,"[1,5,3,6]","[1,5,3,6]","digit_span",FALSE,"false","",NA,NA,"",NA,"",5,1,78,17,"6",NA,0
"608","ds_main_response",1049,"1095345",2135.80000001192,"",FALSE,"[8,5,5,2]","[8,5,5,2]","digit_span",FALSE,"false","",NA,NA,"",NA,"",5,1,79,17,"6",NA,0
"609","ds_main_response",1058,"1099581",2096.79999999702,"",FALSE,"[7,7,3,4]","[7,7,3,4]","digit_span",FALSE,"false","",NA,NA,"",NA,"",5,1,80,17,"6",NA,0
"610","rt_main_trials",1060,"1104136",5000,"",FALSE,"null","","rest_task",TRUE,"","false","1","0","null","2","block_same_same",5,0,58,NA,"6",17,4
"611","rt_main_trials",1061,"1105674",5000,"",FALSE,"null","","rest_task",TRUE,"","false","2","1","null","2","block_same_same",5,0,59,NA,"6",17,4
"612","rt_main_trials",1062,"1107204",5000,"",FALSE,"null","","rest_task",TRUE,"","false","2","2","null","2","block_same_same",5,0,60,NA,"6",17,4
"613","rt_main_trials",1063,"1107964",5000,"",FALSE,"null","","rest_task",TRUE,"","true","2","3","null","2","block_same_same",5,0,61,NA,"6",17,4
"614","ds_main_response",1073,"1113125",1984.89999999106,"",FALSE,"[2,9,3,6]","[2,9,3,6]","digit_span",FALSE,"false","",NA,NA,"",NA,"",5,1,81,18,"6",NA,0
"615","ds_main_response",1082,"1117129",1888.39999999106,"",FALSE,"[4,4,4,5]","[4,4,4,5]","digit_span",FALSE,"false","",NA,NA,"",NA,"",5,1,82,18,"6",NA,0
"616","ds_main_response",1091,"1121356",2103.30000001192,"",FALSE,"[5,6,3,4]","[5,6,3,4]","digit_span",FALSE,"false","",NA,NA,"",NA,"",5,1,83,18,"6",NA,0
"617","ds_main_response",1100,"1125621",2151.79999999702,"",FALSE,"[3,4,5,1]","[3,4,5,1]","digit_span",FALSE,"false","",NA,NA,"",NA,"",5,1,84,18,"6",NA,0
"618","ds_main_response",1109,"1131979",4200,"",FALSE,"[]","[9,2,9,0]","digit_span",TRUE,"false","",NA,NA,"",NA,"",5,0,85,18,"6",NA,0
"619","ds_main_response",1118,"1136304",2178.29999999702,"",FALSE,"[7,1,9,6]","[7,1,9,6]","digit_span",FALSE,"false","",NA,NA,"",NA,"",5,1,86,18,"6",NA,0
"620","ds_main_response",1127,"1140358",1912.90000000596,"",FALSE,"[2,1,3,8]","[2,1,3,8]","digit_span",FALSE,"false","",NA,NA,"",NA,"",5,1,87,18,"6",NA,0
"621","ds_main_response",1136,"1144440",1906.69999998808,"",FALSE,"[2,6,4,8]","[2,6,4,8]","digit_span",FALSE,"false","",NA,NA,"",NA,"",5,1,88,18,"6",NA,0
"622","ds_main_response",1145,"1148350",1767.20000000298,"",FALSE,"[8,8,3,7]","[8,8,3,7]","digit_span",FALSE,"false","",NA,NA,"",NA,"",5,1,89,18,"6",NA,0
"623","ds_main_response",1154,"1152500",2004.20000000298,"",FALSE,"[9,6,7,9]","[9,6,7,9]","digit_span",FALSE,"false","",NA,NA,"",NA,"",5,1,90,18,"6",NA,0
"624","rt_main_trials",1156,"1157062",5000,"",FALSE,"null","","rest_task",TRUE,"","false","2","0","6","3","group_A_B",5,0,62,NA,"6",18,2
"625","rt_main_trials",1157,"1158149",5000,"",FALSE,"null","","rest_task",TRUE,"","true","1","1","6","3","group_A_B",5,0,63,NA,"6",18,2
"626","sr_main_response",1160,"1163089",1855.70000000298,"",FALSE,"","[8,4,13,9]","spatial_recall",FALSE,"false","",NA,NA,"",NA,"",5,1,91,19,"7",NA,0
"627","sr_main_response",1162,"1167433",2299.39999999106,"",FALSE,"","[10,3,15,11]","spatial_recall",FALSE,"false","",NA,NA,"",NA,"",5,1,92,19,"7",NA,0
"628","sr_main_response",1164,"1173422",3940.79999999702,"",FALSE,"","[3,1,8,0]","spatial_recall",FALSE,"false","",NA,NA,"",NA,"",5,1,93,19,"7",NA,0
"629","sr_main_response",1166,"1177743",2279.20000000298,"",FALSE,"","[1,12,10,5]","spatial_recall",FALSE,"false","",NA,NA,"",NA,"",5,1,94,19,"7",NA,0
"630","sr_main_response",1168,"1181649",1859.89999999106,"",FALSE,"","[6,1,2,15]","spatial_recall",FALSE,"false","",NA,NA,"",NA,"",5,0,95,19,"7",NA,0
"631","sr_main_response",1170,"1185955",2250.39999999106,"",FALSE,"","[10,3,11,13]","spatial_recall",FALSE,"false","",NA,NA,"",NA,"",5,1,96,19,"7",NA,0
"632","sr_main_response",1172,"1190158",2157.40000000596,"",FALSE,"","[15,11,0,14]","spatial_recall",FALSE,"false","",NA,NA,"",NA,"",5,1,97,19,"7",NA,0
"633","sr_main_response",1174,"1194147",1945.79999999702,"",FALSE,"","[15,2,9,6]","spatial_recall",FALSE,"false","",NA,NA,"",NA,"",5,0,98,19,"7",NA,0
"634","sr_main_response",1176,"1198365",2168.5,"",FALSE,"","[11,9,5,2]","spatial_recall",FALSE,"false","",NA,NA,"",NA,"",5,1,99,19,"7",NA,0
"635","sr_main_response",1178,"1202836",2427.79999999702,"",FALSE,"","[0,3,13,6]","spatial_recall",FALSE,"false","",NA,NA,"",NA,"",5,1,100,19,"7",NA,0
"636","rt_main_trials",1180,"1207399",5000,"",FALSE,"null","","rest_task",TRUE,"","false","2","0","null","1","block_same_same",5,0,64,NA,"7",19,2
"637","rt_main_trials",1181,"1208559",5000,"",FALSE,"null","","rest_task",TRUE,"","true","2","1","null","1","block_same_same",5,0,65,NA,"7",19,2
"638","sr_main_response",1184,"1213770",2124.30000001192,"",FALSE,"","[7,4,2,12]","spatial_recall",FALSE,"false","",NA,NA,"",NA,"",5,1,101,20,"7",NA,0
"639","sr_main_response",1186,"1218268",2456,"",FALSE,"","[0,13,2,15]","spatial_recall",FALSE,"false","",NA,NA,"",NA,"",5,0,102,20,"7",NA,0
"640","sr_main_response",1188,"1223187",2866.39999999106,"",FALSE,"","[2,15,5,6]","spatial_recall",FALSE,"false","",NA,NA,"",NA,"",5,1,103,20,"7",NA,0
"641","sr_main_response",1190,"1227594",2362.29999999702,"",FALSE,"","[14,12,11,9]","spatial_recall",FALSE,"false","",NA,NA,"",NA,"",5,1,104,20,"7",NA,0
"642","sr_main_response",1192,"1231847",2200.70000000298,"",FALSE,"","[0,6,9,5]","spatial_recall",FALSE,"false","",NA,NA,"",NA,"",5,1,105,20,"7",NA,0
"643","sr_main_response",1194,"1235686",1785.29999999702,"",FALSE,"","[9,8,13,12]","spatial_recall",FALSE,"false","",NA,NA,"",NA,"",5,1,106,20,"7",NA,0
"644","sr_main_response",1196,"1240549",2810,"",FALSE,"","[3,9,6,10]","spatial_recall",FALSE,"false","",NA,NA,"",NA,"",5,1,107,20,"7",NA,0
"645","sr_main_response",1198,"1244806",2189.09999999404,"",FALSE,"","[2,13,12,10]","spatial_recall",FALSE,"false","",NA,NA,"",NA,"",5,1,108,20,"7",NA,0
"646","sr_main_response",1200,"1249024",2167.20000000298,"",FALSE,"","[14,15,8,11]","spatial_recall",FALSE,"false","",NA,NA,"",NA,"",5,1,109,20,"7",NA,0
"647","sr_main_response",1202,"1253154",2083.20000000298,"",FALSE,"","[3,15,1,6]","spatial_recall",FALSE,"false","",NA,NA,"",NA,"",5,1,110,20,"7",NA,0
"648","rt_main_trials",1204,"1257725",5000,"",FALSE,"null","","rest_task",TRUE,"","false","1","0","null","2","block_same_same",5,0,66,NA,"7",20,5
"649","rt_main_trials",1205,"1259249",5000,"",FALSE,"null","","rest_task",TRUE,"","false","1","1","null","2","block_same_same",5,0,67,NA,"7",20,5
"650","rt_main_trials",1206,"1260791",5000,"",FALSE,"null","","rest_task",TRUE,"","false","1","2","null","2","block_same_same",5,0,68,NA,"7",20,5
"651","rt_main_trials",1207,"1262325",5000,"",FALSE,"null","","rest_task",TRUE,"","false","1","3","null","2","block_same_same",5,0,69,NA,"7",20,5
"652","rt_main_trials",1208,"1263564",5000,"",FALSE,"null","","rest_task",TRUE,"","true","2","4","null","2","block_same_same",5,0,70,NA,"7",20,5
"653","sr_main_response",1211,"1268806",2144.59999999404,"",FALSE,"","[4,11,8,9]","spatial_recall",FALSE,"false","",NA,NA,"",NA,"",5,1,111,21,"7",NA,0
"654","sr_main_response",1213,"1273123",2270.5,"",FALSE,"","[8,3,11,13]","spatial_recall",FALSE,"false","",NA,NA,"",NA,"",5,1,112,21,"7",NA,0
"655","sr_main_response",1215,"1277493",2326.59999999404,"",FALSE,"","[8,3,11,9]","spatial_recall",FALSE,"false","",NA,NA,"",NA,"",5,1,113,21,"7",NA,0
"656","sr_main_response",1217,"1282267",2727,"",FALSE,"","[5,10,1,9]","spatial_recall",FALSE,"false","",NA,NA,"",NA,"",5,0,114,21,"7",NA,0
"657","sr_main_response",1219,"1286345",2035.29999999702,"",FALSE,"","[5,13,14,6]","spatial_recall",FALSE,"false","",NA,NA,"",NA,"",5,1,115,21,"7",NA,0
"658","sr_main_response",1221,"1290512",2119.5,"",FALSE,"","[12,1,6,3]","spatial_recall",FALSE,"false","",NA,NA,"",NA,"",5,1,116,21,"7",NA,0
"659","sr_main_response",1223,"1294904",2346.09999999404,"",FALSE,"","[2,3,13,8]","spatial_recall",FALSE,"false","",NA,NA,"",NA,"",5,1,117,21,"7",NA,0
"660","sr_main_response",1225,"1299047",2084.70000000298,"",FALSE,"","[13,15,11,1]","spatial_recall",FALSE,"false","",NA,NA,"",NA,"",5,1,118,21,"7",NA,0
"661","sr_main_response",1227,"1303220",2116,"",FALSE,"","[1,6,2,3]","spatial_recall",FALSE,"false","",NA,NA,"",NA,"",5,1,119,21,"7",NA,0
"662","sr_main_response",1229,"1308962",3697.70000000298,"",FALSE,"","[6,14,1,13]","spatial_recall",FALSE,"false","",NA,NA,"",NA,"",5,1,120,21,"7",NA,0
"663","rt_main_trials",1231,"1313232",5000,"",FALSE,"null","","rest_task",TRUE,"","true","1","0","7","3","group_B_A",5,0,71,NA,"7",21,1
"664","ds_main_response",1241,"1318973",2547.90000000596,"",FALSE,"[0,1,5,0]","[0,1,5,0]","digit_span",FALSE,"false","",NA,NA,"",NA,"",5,1,91,22,"8",NA,0
"665","ds_main_response",1250,"1323201",2043.79999999702,"",FALSE,"[1,5,7,2]","[1,5,7,2]","digit_span",FALSE,"false","",NA,NA,"",NA,"",5,1,92,22,"8",NA,0
"666","ds_main_response",1259,"1327945",2585.79999999702,"",FALSE,"[1,6,7,6]","[1,6,7,6]","digit_span",FALSE,"false","",NA,NA,"",NA,"",5,1,93,22,"8",NA,0
"667","ds_main_response",1268,"1332303",2190.5,"",FALSE,"[9,6,5,1]","[9,6,5,1]","digit_span",FALSE,"false","",NA,NA,"",NA,"",5,1,94,22,"8",NA,0
"668","ds_main_response",1277,"1336599",2129.89999999106,"",FALSE,"[2,9,6,5]","[2,9,6,5]","digit_span",FALSE,"false","",NA,NA,"",NA,"",5,1,95,22,"8",NA,0
"669","ds_main_response",1286,"1341039",2260.69999998808,"",FALSE,"[9,5,8,2]","[9,5,8,2]","digit_span",FALSE,"false","",NA,NA,"",NA,"",5,1,96,22,"8",NA,0
"670","ds_main_response",1295,"1346009",2803.69999998808,"",FALSE,"[7,1,0,2]","[7,1,0,2]","digit_span",FALSE,"false","",NA,NA,"",NA,"",5,1,97,22,"8",NA,0
"671","ds_main_response",1304,"1350196",2032.5,"",FALSE,"[4,2,1,8]","[4,2,1,8]","digit_span",FALSE,"false","",NA,NA,"",NA,"",5,1,98,22,"8",NA,0
"672","ds_main_response",1313,"1354630",2266.29999999702,"",FALSE,"[6,0,1,6]","[6,0,1,6]","digit_span",FALSE,"false","",NA,NA,"",NA,"",5,1,99,22,"8",NA,0
"673","ds_main_response",1322,"1358906",2110.59999999404,"",FALSE,"[1,6,9,3]","[1,6,9,3]","digit_span",FALSE,"false","",NA,NA,"",NA,"",5,1,100,22,"8",NA,0
"674","rt_main_trials",1324,"1363492",5000,"",FALSE,"null","","rest_task",TRUE,"","false","1","0","null","1","block_same_same",5,0,72,NA,"8",22,4
"675","rt_main_trials",1325,"1365031",5000,"",FALSE,"null","","rest_task",TRUE,"","false","2","1","null","1","block_same_same",5,0,73,NA,"8",22,4
"676","rt_main_trials",1326,"1366574",5000,"",FALSE,"null","","rest_task",TRUE,"","false","1","2","null","1","block_same_same",5,0,74,NA,"8",22,4
"677","rt_main_trials",1327,"1367207",5000,"",FALSE,"null","","rest_task",TRUE,"","true","2","3","null","1","block_same_same",5,0,75,NA,"8",22,4
"678","ds_main_response",1337,"1373000",2599.59999999404,"",FALSE,"[5,7,3,5]","[5,7,3,5]","digit_span",FALSE,"false","",NA,NA,"",NA,"",5,1,101,23,"8",NA,0
"679","ds_main_response",1346,"1377279",2100.89999999106,"",FALSE,"[9,7,0,5]","[9,7,0,5]","digit_span",FALSE,"false","",NA,NA,"",NA,"",5,1,102,23,"8",NA,0
"680","ds_main_response",1355,"1381548",2070.29999999702,"",FALSE,"[1,7,2,4]","[1,7,2,4]","digit_span",FALSE,"false","",NA,NA,"",NA,"",5,1,103,23,"8",NA,0
