"view_history","rt","trial_type","trial_index","time_elapsed","internal_node_id","run_id","condition","recorded_at","source_code_version","ip","user_agent","device","browser","browser_version","platform","platform_version","referer","accept_language","min_width","min_height","inner_width","inner_height","stimulus","response","sequence","sequence_length","tile_duration","backwards","responses","score_an","score_pc","score_ls","event_history","success","timeout","failed_images","failed_audio","failed_video","task","correct_response","correct","fixation_time"
"[{""page_index"":0,""viewing_time"":3492}]","3493","instructions","0","3496","0.0-0.0","4","1","2024-03-20 00:49:53","c33429291dc7a384f95165972fddd116","171.66.13.161","Mozilla/5.0 (Macintosh; Intel Mac OS X 10_15_7) AppleWebKit/605.1.15 (KHTML, like Gecko) Version/17.2.1 Safari/605.1.15","Macintosh","Safari","17.2.1","OS X","10_15_7","null","en-US,en;q=0.9","","","","","","","","","","","","","","","","","","","","","","","",""
"[{""page_index"":0,""viewing_time"":933},{""page_index"":1,""viewing_time"":1844},{""page_index"":0,""viewing_time"":1818},{""page_index"":1,""viewing_time"":15295},{""page_index"":2,""viewing_time"":8207}]","28097","instructions","1","31597","0.0-1.0","4","1","2024-03-20 00:49:53","c33429291dc7a384f95165972fddd116","171.66.13.161","Mozilla/5.0 (Macintosh; Intel Mac OS X 10_15_7) AppleWebKit/605.1.15 (KHTML, like Gecko) Version/17.2.1 Safari/605.1.15","Macintosh","Safari","17.2.1","OS X","10_15_7","null","en-US,en;q=0.9","","","","","","","","","","","","","","","","","","","","","","","",""
"","","screen-check","2","31599","0.0-2.0-0.0","4","1","2024-03-20 00:49:53","c33429291dc7a384f95165972fddd116","171.66.13.161","Mozilla/5.0 (Macintosh; Intel Mac OS X 10_15_7) AppleWebKit/605.1.15 (KHTML, like Gecko) Version/17.2.1 Safari/605.1.15","Macintosh","Safari","17.2.1","OS X","10_15_7","null","en-US,en;q=0.9","258","364","1512","865","","","","","","","","","","","","","","","","","","","",""
"","null","html-keyboard-response","3","32100","0.0-2.0-1.0","4","1","2024-03-20 00:49:53","c33429291dc7a384f95165972fddd116","171.66.13.161","Mozilla/5.0 (Macintosh; Intel Mac OS X 10_15_7) AppleWebKit/605.1.15 (KHTML, like Gecko) Version/17.2.1 Safari/605.1.15","Macintosh","Safari","17.2.1","OS X","10_15_7","null","en-US,en;q=0.9","","","","","<p style=""font-size: 48px;"">+</p>","null","","","","","","","","","","","","","","","","","",""
"","4010.9999999999927","spatial-recall","4","40566","0.0-2.0-2.0","4","1","2024-03-20 00:49:53","c33429291dc7a384f95165972fddd116","171.66.13.161","Mozilla/5.0 (Macintosh; Intel Mac OS X 10_15_7) AppleWebKit/605.1.15 (KHTML, like Gecko) Version/17.2.1 Safari/605.1.15","Macintosh","Safari","17.2.1","OS X","10_15_7","null","en-US,en;q=0.9","","","","","","","[1,14,9,11]","4","737","false","[1,14,9,11]","1","4","4","[{""button"":1,""time"":968.9999999999927},{""button"":14,""time"":1744.9999999999927},{""button"":9,""time"":2141.9999999999927},{""button"":11,""time"":2692},{""button"":""submit"",""time"":4010.9999999999927}]","","","","","","","","",""
"","","screen-check","5","40569","0.0-2.0-0.1","4","1","2024-03-20 00:49:53","c33429291dc7a384f95165972fddd116","171.66.13.161","Mozilla/5.0 (Macintosh; Intel Mac OS X 10_15_7) AppleWebKit/605.1.15 (KHTML, like Gecko) Version/17.2.1 Safari/605.1.15","Macintosh","Safari","17.2.1","OS X","10_15_7","null","en-US,en;q=0.9","258","364","1512","865","","","","","","","","","","","","","","","","","","","",""
"","null","html-keyboard-response","6","41071","0.0-2.0-1.1","4","1","2024-03-20 00:49:53","c33429291dc7a384f95165972fddd116","171.66.13.161","Mozilla/5.0 (Macintosh; Intel Mac OS X 10_15_7) AppleWebKit/605.1.15 (KHTML, like Gecko) Version/17.2.1 Safari/605.1.15","Macintosh","Safari","17.2.1","OS X","10_15_7","null","en-US,en;q=0.9","","","","","<p style=""font-size: 48px;"">+</p>","null","","","","","","","","","","","","","","","","","",""
"","3718","spatial-recall","7","49290","0.0-2.0-2.1","4","1","2024-03-20 00:49:53","c33429291dc7a384f95165972fddd116","171.66.13.161","Mozilla/5.0 (Macintosh; Intel Mac OS X 10_15_7) AppleWebKit/605.1.15 (KHTML, like Gecko) Version/17.2.1 Safari/605.1.15","Macintosh","Safari","17.2.1","OS X","10_15_7","null","en-US,en;q=0.9","","","","","","","[9,15,2,4]","4","749","false","[9,15,2,4]","1","4","4","[{""button"":9,""time"":750},{""button"":15,""time"":1315},{""button"":2,""time"":2010},{""button"":4,""time"":2730.0000000000073},{""button"":""submit"",""time"":3718}]","","","","","","","","",""
"","","screen-check","8","49292","0.0-2.0-0.2","4","1","2024-03-20 00:49:53","c33429291dc7a384f95165972fddd116","171.66.13.161","Mozilla/5.0 (Macintosh; Intel Mac OS X 10_15_7) AppleWebKit/605.1.15 (KHTML, like Gecko) Version/17.2.1 Safari/605.1.15","Macintosh","Safari","17.2.1","OS X","10_15_7","null","en-US,en;q=0.9","258","364","1512","865","","","","","","","","","","","","","","","","","","","",""
"","null","html-keyboard-response","9","49794","0.0-2.0-1.2","4","1","2024-03-20 00:49:53","c33429291dc7a384f95165972fddd116","171.66.13.161","Mozilla/5.0 (Macintosh; Intel Mac OS X 10_15_7) AppleWebKit/605.1.15 (KHTML, like Gecko) Version/17.2.1 Safari/605.1.15","Macintosh","Safari","17.2.1","OS X","10_15_7","null","en-US,en;q=0.9","","","","","<p style=""font-size: 48px;"">+</p>","null","","","","","","","","","","","","","","","","","",""
"","3189","spatial-recall","10","57312","0.0-2.0-2.2","4","1","2024-03-20 00:49:53","c33429291dc7a384f95165972fddd116","171.66.13.161","Mozilla/5.0 (Macintosh; Intel Mac OS X 10_15_7) AppleWebKit/605.1.15 (KHTML, like Gecko) Version/17.2.1 Safari/605.1.15","Macintosh","Safari","17.2.1","OS X","10_15_7","null","en-US,en;q=0.9","","","","","","","[6,15,1,13]","4","706","false","[6,15,1,13]","1","4","4","[{""button"":6,""time"":534},{""button"":15,""time"":1126},{""button"":1,""time"":1709},{""button"":13,""time"":2387},{""button"":""submit"",""time"":3189}]","","","","","","","","",""
"","","screen-check","11","57314","0.0-2.0-0.3","4","1","2024-03-20 00:49:53","c33429291dc7a384f95165972fddd116","171.66.13.161","Mozilla/5.0 (Macintosh; Intel Mac OS X 10_15_7) AppleWebKit/605.1.15 (KHTML, like Gecko) Version/17.2.1 Safari/605.1.15","Macintosh","Safari","17.2.1","OS X","10_15_7","null","en-US,en;q=0.9","258","364","1512","865","","","","","","","","","","","","","","","","","","","",""
"","null","html-keyboard-response","12","57815","0.0-2.0-1.3","4","1","2024-03-20 00:49:53","c33429291dc7a384f95165972fddd116","171.66.13.161","Mozilla/5.0 (Macintosh; Intel Mac OS X 10_15_7) AppleWebKit/605.1.15 (KHTML, like Gecko) Version/17.2.1 Safari/605.1.15","Macintosh","Safari","17.2.1","OS X","10_15_7","null","en-US,en;q=0.9","","","","","<p style=""font-size: 48px;"">+</p>","null","","","","","","","","","","","","","","","","","",""
"","3013","spatial-recall","13","65252","0.0-2.0-2.3","4","1","2024-03-20 00:49:53","c33429291dc7a384f95165972fddd116","171.66.13.161","Mozilla/5.0 (Macintosh; Intel Mac OS X 10_15_7) AppleWebKit/605.1.15 (KHTML, like Gecko) Version/17.2.1 Safari/605.1.15","Macintosh","Safari","17.2.1","OS X","10_15_7","null","en-US,en;q=0.9","","","","","","","[0,8,12,2]","4","730","false","[0,8,12,2]","1","4","4","[{""button"":0,""time"":732.0000000000073},{""button"":8,""time"":1288.9999999999927},{""button"":12,""time"":1751},{""button"":2,""time"":2357.0000000000146},{""button"":""submit"",""time"":3013}]","","","","","","","","",""
"","","screen-check","14","65254","0.0-2.0-0.4","4","1","2024-03-20 00:49:53","c33429291dc7a384f95165972fddd116","171.66.13.161","Mozilla/5.0 (Macintosh; Intel Mac OS X 10_15_7) AppleWebKit/605.1.15 (KHTML, like Gecko) Version/17.2.1 Safari/605.1.15","Macintosh","Safari","17.2.1","OS X","10_15_7","null","en-US,en;q=0.9","258","364","1512","865","","","","","","","","","","","","","","","","","","","",""
"","null","html-keyboard-response","15","65756","0.0-2.0-1.4","4","1","2024-03-20 00:49:53","c33429291dc7a384f95165972fddd116","171.66.13.161","Mozilla/5.0 (Macintosh; Intel Mac OS X 10_15_7) AppleWebKit/605.1.15 (KHTML, like Gecko) Version/17.2.1 Safari/605.1.15","Macintosh","Safari","17.2.1","OS X","10_15_7","null","en-US,en;q=0.9","","","","","<p style=""font-size: 48px;"">+</p>","null","","","","","","","","","","","","","","","","","",""
"","3376","spatial-recall","16","73565","0.0-2.0-2.4","4","1","2024-03-20 00:49:53","c33429291dc7a384f95165972fddd116","171.66.13.161","Mozilla/5.0 (Macintosh; Intel Mac OS X 10_15_7) AppleWebKit/605.1.15 (KHTML, like Gecko) Version/17.2.1 Safari/605.1.15","Macintosh","Safari","17.2.1","OS X","10_15_7","null","en-US,en;q=0.9","","","","","","","[9,8,7,1]","4","732","false","[9,8,7,2]","0","3","3","[{""button"":9,""time"":723},{""button"":8,""time"":1152},{""button"":7,""time"":2000},{""button"":2,""time"":2493},{""button"":""submit"",""time"":3376}]","","","","","","","","",""
"","","screen-check","17","73568","0.0-2.0-0.5","4","1","2024-03-20 00:49:53","c33429291dc7a384f95165972fddd116","171.66.13.161","Mozilla/5.0 (Macintosh; Intel Mac OS X 10_15_7) AppleWebKit/605.1.15 (KHTML, like Gecko) Version/17.2.1 Safari/605.1.15","Macintosh","Safari","17.2.1","OS X","10_15_7","null","en-US,en;q=0.9","258","364","1512","865","","","","","","","","","","","","","","","","","","","",""
"","null","html-keyboard-response","18","74070","0.0-2.0-1.5","4","1","2024-03-20 00:49:53","c33429291dc7a384f95165972fddd116","171.66.13.161","Mozilla/5.0 (Macintosh; Intel Mac OS X 10_15_7) AppleWebKit/605.1.15 (KHTML, like Gecko) Version/17.2.1 Safari/605.1.15","Macintosh","Safari","17.2.1","OS X","10_15_7","null","en-US,en;q=0.9","","","","","<p style=""font-size: 48px;"">+</p>","null","","","","","","","","","","","","","","","","","",""
"","2960","spatial-recall","19","81302","0.0-2.0-2.5","4","1","2024-03-20 00:49:53","c33429291dc7a384f95165972fddd116","171.66.13.161","Mozilla/5.0 (Macintosh; Intel Mac OS X 10_15_7) AppleWebKit/605.1.15 (KHTML, like Gecko) Version/17.2.1 Safari/605.1.15","Macintosh","Safari","17.2.1","OS X","10_15_7","null","en-US,en;q=0.9","","","","","","","[15,7,1,0]","4","692","false","[15,7,2,0]","0","3","3","[{""button"":15,""time"":655},{""button"":7,""time"":1190},{""button"":2,""time"":1683},{""button"":0,""time"":2128},{""button"":""submit"",""time"":2960}]","","","","","","","","",""
"","","screen-check","20","81304","0.0-2.0-0.6","4","1","2024-03-20 00:49:53","c33429291dc7a384f95165972fddd116","171.66.13.161","Mozilla/5.0 (Macintosh; Intel Mac OS X 10_15_7) AppleWebKit/605.1.15 (KHTML, like Gecko) Version/17.2.1 Safari/605.1.15","Macintosh","Safari","17.2.1","OS X","10_15_7","null","en-US,en;q=0.9","258","364","1512","865","","","","","","","","","","","","","","","","","","","",""
"","null","html-keyboard-response","21","81805","0.0-2.0-1.6","4","1","2024-03-20 00:49:53","c33429291dc7a384f95165972fddd116","171.66.13.161","Mozilla/5.0 (Macintosh; Intel Mac OS X 10_15_7) AppleWebKit/605.1.15 (KHTML, like Gecko) Version/17.2.1 Safari/605.1.15","Macintosh","Safari","17.2.1","OS X","10_15_7","null","en-US,en;q=0.9","","","","","<p style=""font-size: 48px;"">+</p>","null","","","","","","","","","","","","","","","","","",""
"","23692","spatial-recall","22","109586","0.0-2.0-2.6","4","1","2024-03-20 00:49:53","c33429291dc7a384f95165972fddd116","171.66.13.161","Mozilla/5.0 (Macintosh; Intel Mac OS X 10_15_7) AppleWebKit/605.1.15 (KHTML, like Gecko) Version/17.2.1 Safari/605.1.15","Macintosh","Safari","17.2.1","OS X","10_15_7","null","en-US,en;q=0.9","","","","","","","[4,1,14,15]","4","646","false","[4,1,14,15]","1","4","4","[{""button"":4,""time"":738},{""button"":1,""time"":1224},{""button"":14,""time"":1910},{""button"":15,""time"":2225},{""button"":""submit"",""time"":23692}]","","","","","","","","",""
"","","screen-check","23","109588","0.0-2.0-0.7","4","1","2024-03-20 00:49:53","c33429291dc7a384f95165972fddd116","171.66.13.161","Mozilla/5.0 (Macintosh; Intel Mac OS X 10_15_7) AppleWebKit/605.1.15 (KHTML, like Gecko) Version/17.2.1 Safari/605.1.15","Macintosh","Safari","17.2.1","OS X","10_15_7","null","en-US,en;q=0.9","258","364","1512","865","","","","","","","","","","","","","","","","","","","",""
"","null","html-keyboard-response","24","110089","0.0-2.0-1.7","4","1","2024-03-20 00:49:53","c33429291dc7a384f95165972fddd116","171.66.13.161","Mozilla/5.0 (Macintosh; Intel Mac OS X 10_15_7) AppleWebKit/605.1.15 (KHTML, like Gecko) Version/17.2.1 Safari/605.1.15","Macintosh","Safari","17.2.1","OS X","10_15_7","null","en-US,en;q=0.9","","","","","<p style=""font-size: 48px;"">+</p>","null","","","","","","","","","","","","","","","","","",""
"","5956","spatial-recall","25","120130","0.0-2.0-2.7","4","1","2024-03-20 00:49:53","c33429291dc7a384f95165972fddd116","171.66.13.161","Mozilla/5.0 (Macintosh; Intel Mac OS X 10_15_7) AppleWebKit/605.1.15 (KHTML, like Gecko) Version/17.2.1 Safari/605.1.15","Macintosh","Safari","17.2.1","OS X","10_15_7","null","en-US,en;q=0.9","","","","","","","[10,3,14,15]","4","645","false","[10,15,3,14]","0","1","3","[{""button"":9,""time"":628},{""button"":9,""time"":845},{""button"":""clear"",""time"":1678.0000000000146},{""button"":""clear"",""time"":1831},{""button"":10,""time"":2559.0000000000146},{""button"":15,""time"":3005},{""button"":3,""time"":3763},{""button"":14,""time"":5277},{""button"":""submit"",""time"":5956}]","","","","","","","","",""
"","","screen-check","26","120132","0.0-2.0-0.8","4","1","2024-03-20 00:49:53","c33429291dc7a384f95165972fddd116","171.66.13.161","Mozilla/5.0 (Macintosh; Intel Mac OS X 10_15_7) AppleWebKit/605.1.15 (KHTML, like Gecko) Version/17.2.1 Safari/605.1.15","Macintosh","Safari","17.2.1","OS X","10_15_7","null","en-US,en;q=0.9","258","364","1512","865","","","","","","","","","","","","","","","","","","","",""
"","null","html-keyboard-response","27","120634","0.0-2.0-1.8","4","1","2024-03-20 00:49:53","c33429291dc7a384f95165972fddd116","171.66.13.161","Mozilla/5.0 (Macintosh; Intel Mac OS X 10_15_7) AppleWebKit/605.1.15 (KHTML, like Gecko) Version/17.2.1 Safari/605.1.15","Macintosh","Safari","17.2.1","OS X","10_15_7","null","en-US,en;q=0.9","","","","","<p style=""font-size: 48px;"">+</p>","null","","","","","","","","","","","","","","","","","",""
"","3177.0000000000146","spatial-recall","28","127716","0.0-2.0-2.8","4","1","2024-03-20 00:49:53","c33429291dc7a384f95165972fddd116","171.66.13.161","Mozilla/5.0 (Macintosh; Intel Mac OS X 10_15_7) AppleWebKit/605.1.15 (KHTML, like Gecko) Version/17.2.1 Safari/605.1.15","Macintosh","Safari","17.2.1","OS X","10_15_7","null","en-US,en;q=0.9","","","","","","","[1,0,13,6]","4","600","false","[1,0,13,10]","0","3","3","[{""button"":1,""time"":636},{""button"":0,""time"":1089},{""button"":13,""time"":1711},{""button"":10,""time"":2116},{""button"":""submit"",""time"":3177.0000000000146}]","","","","","","","","",""
"","","screen-check","29","127719","0.0-2.0-0.9","4","1","2024-03-20 00:49:53","c33429291dc7a384f95165972fddd116","171.66.13.161","Mozilla/5.0 (Macintosh; Intel Mac OS X 10_15_7) AppleWebKit/605.1.15 (KHTML, like Gecko) Version/17.2.1 Safari/605.1.15","Macintosh","Safari","17.2.1","OS X","10_15_7","null","en-US,en;q=0.9","258","364","1512","865","","","","","","","","","","","","","","","","","","","",""
"","null","html-keyboard-response","30","128221","0.0-2.0-1.9","4","1","2024-03-20 00:49:53","c33429291dc7a384f95165972fddd116","171.66.13.161","Mozilla/5.0 (Macintosh; Intel Mac OS X 10_15_7) AppleWebKit/605.1.15 (KHTML, like Gecko) Version/17.2.1 Safari/605.1.15","Macintosh","Safari","17.2.1","OS X","10_15_7","null","en-US,en;q=0.9","","","","","<p style=""font-size: 48px;"">+</p>","null","","","","","","","","","","","","","","","","","",""
"","4259","spatial-recall","31","136496","0.0-2.0-2.9","4","1","2024-03-20 00:49:53","c33429291dc7a384f95165972fddd116","171.66.13.161","Mozilla/5.0 (Macintosh; Intel Mac OS X 10_15_7) AppleWebKit/605.1.15 (KHTML, like Gecko) Version/17.2.1 Safari/605.1.15","Macintosh","Safari","17.2.1","OS X","10_15_7","null","en-US,en;q=0.9","","","","","","","[12,1,14,4]","4","628","false","[1,12,14,4]","0","2","3","[{""button"":1,""time"":790},{""button"":12,""time"":1436},{""button"":14,""time"":1938.000000000029},{""button"":4,""time"":2537},{""button"":""submit"",""time"":4259}]","","","","","","","","",""
"","","screen-check","32","136498","0.0-2.0-0.10","4","1","2024-03-20 00:49:53","c33429291dc7a384f95165972fddd116","171.66.13.161","Mozilla/5.0 (Macintosh; Intel Mac OS X 10_15_7) AppleWebKit/605.1.15 (KHTML, like Gecko) Version/17.2.1 Safari/605.1.15","Macintosh","Safari","17.2.1","OS X","10_15_7","null","en-US,en;q=0.9","258","364","1512","865","","","","","","","","","","","","","","","","","","","",""
"","null","html-keyboard-response","33","137000","0.0-2.0-1.10","4","1","2024-03-20 00:49:53","c33429291dc7a384f95165972fddd116","171.66.13.161","Mozilla/5.0 (Macintosh; Intel Mac OS X 10_15_7) AppleWebKit/605.1.15 (KHTML, like Gecko) Version/17.2.1 Safari/605.1.15","Macintosh","Safari","17.2.1","OS X","10_15_7","null","en-US,en;q=0.9","","","","","<p style=""font-size: 48px;"">+</p>","null","","","","","","","","","","","","","","","","","",""
"","3257","spatial-recall","34","144025","0.0-2.0-2.10","4","1","2024-03-20 00:49:53","c33429291dc7a384f95165972fddd116","171.66.13.161","Mozilla/5.0 (Macintosh; Intel Mac OS X 10_15_7) AppleWebKit/605.1.15 (KHTML, like Gecko) Version/17.2.1 Safari/605.1.15","Macintosh","Safari","17.2.1","OS X","10_15_7","null","en-US,en;q=0.9","","","","","","","[9,4,2,6]","4","566","false","[9,4,1,6]","0","3","3","[{""button"":9,""time"":750},{""button"":4,""time"":1234},{""button"":1,""time"":2150},{""button"":6,""time"":2537},{""button"":""submit"",""time"":3257}]","","","","","","","","",""
"","","screen-check","35","144027","0.0-2.0-0.11","4","1","2024-03-20 00:49:53","c33429291dc7a384f95165972fddd116","171.66.13.161","Mozilla/5.0 (Macintosh; Intel Mac OS X 10_15_7) AppleWebKit/605.1.15 (KHTML, like Gecko) Version/17.2.1 Safari/605.1.15","Macintosh","Safari","17.2.1","OS X","10_15_7","null","en-US,en;q=0.9","258","364","1512","865","","","","","","","","","","","","","","","","","","","",""
"","null","html-keyboard-response","36","144529","0.0-2.0-1.11","4","1","2024-03-20 00:49:53","c33429291dc7a384f95165972fddd116","171.66.13.161","Mozilla/5.0 (Macintosh; Intel Mac OS X 10_15_7) AppleWebKit/605.1.15 (KHTML, like Gecko) Version/17.2.1 Safari/605.1.15","Macintosh","Safari","17.2.1","OS X","10_15_7","null","en-US,en;q=0.9","","","","","<p style=""font-size: 48px;"">+</p>","null","","","","","","","","","","","","","","","","","",""
"","3534","spatial-recall","37","151917","0.0-2.0-2.11","4","1","2024-03-20 00:49:53","c33429291dc7a384f95165972fddd116","171.66.13.161","Mozilla/5.0 (Macintosh; Intel Mac OS X 10_15_7) AppleWebKit/605.1.15 (KHTML, like Gecko) Version/17.2.1 Safari/605.1.15","Macintosh","Safari","17.2.1","OS X","10_15_7","null","en-US,en;q=0.9","","","","","","","[5,13,9,3]","4","587","false","[5,13,9,3]","1","4","4","[{""button"":5,""time"":704},{""button"":13,""time"":1173.000000000029},{""button"":9,""time"":1586},{""button"":3,""time"":2176},{""button"":""submit"",""time"":3534}]","","","","","","","","",""
"","","screen-check","38","151921","0.0-2.0-0.12","4","1","2024-03-20 00:49:53","c33429291dc7a384f95165972fddd116","171.66.13.161","Mozilla/5.0 (Macintosh; Intel Mac OS X 10_15_7) AppleWebKit/605.1.15 (KHTML, like Gecko) Version/17.2.1 Safari/605.1.15","Macintosh","Safari","17.2.1","OS X","10_15_7","null","en-US,en;q=0.9","258","364","1512","865","","","","","","","","","","","","","","","","","","","",""
"","null","html-keyboard-response","39","152423","0.0-2.0-1.12","4","1","2024-03-20 00:49:53","c33429291dc7a384f95165972fddd116","171.66.13.161","Mozilla/5.0 (Macintosh; Intel Mac OS X 10_15_7) AppleWebKit/605.1.15 (KHTML, like Gecko) Version/17.2.1 Safari/605.1.15","Macintosh","Safari","17.2.1","OS X","10_15_7","null","en-US,en;q=0.9","","","","","<p style=""font-size: 48px;"">+</p>","null","","","","","","","","","","","","","","","","","",""
"","2908","spatial-recall","40","158987","0.0-2.0-2.12","4","1","2024-03-20 00:49:53","c33429291dc7a384f95165972fddd116","171.66.13.161","Mozilla/5.0 (Macintosh; Intel Mac OS X 10_15_7) AppleWebKit/605.1.15 (KHTML, like Gecko) Version/17.2.1 Safari/605.1.15","Macintosh","Safari","17.2.1","OS X","10_15_7","null","en-US,en;q=0.9","","","","","","","[3,15,12,0]","4","538","false","[3,15,12,0]","1","4","4","[{""button"":3,""time"":529},{""button"":15,""time"":1112},{""button"":12,""time"":1661},{""button"":0,""time"":2269.000000000029},{""button"":""submit"",""time"":2908}]","","","","","","","","",""
"","","screen-check","41","158990","0.0-2.0-0.13","4","1","2024-03-20 00:49:53","c33429291dc7a384f95165972fddd116","171.66.13.161","Mozilla/5.0 (Macintosh; Intel Mac OS X 10_15_7) AppleWebKit/605.1.15 (KHTML, like Gecko) Version/17.2.1 Safari/605.1.15","Macintosh","Safari","17.2.1","OS X","10_15_7","null","en-US,en;q=0.9","258","364","1512","865","","","","","","","","","","","","","","","","","","","",""
"","null","html-keyboard-response","42","159491","0.0-2.0-1.13","4","1","2024-03-20 00:49:53","c33429291dc7a384f95165972fddd116","171.66.13.161","Mozilla/5.0 (Macintosh; Intel Mac OS X 10_15_7) AppleWebKit/605.1.15 (KHTML, like Gecko) Version/17.2.1 Safari/605.1.15","Macintosh","Safari","17.2.1","OS X","10_15_7","null","en-US,en;q=0.9","","","","","<p style=""font-size: 48px;"">+</p>","null","","","","","","","","","","","","","","","","","",""
"","2884","spatial-recall","43","166045","0.0-2.0-2.13","4","1","2024-03-20 00:49:53","c33429291dc7a384f95165972fddd116","171.66.13.161","Mozilla/5.0 (Macintosh; Intel Mac OS X 10_15_7) AppleWebKit/605.1.15 (KHTML, like Gecko) Version/17.2.1 Safari/605.1.15","Macintosh","Safari","17.2.1","OS X","10_15_7","null","en-US,en;q=0.9","","","","","","","[1,2,9,3]","4","541","false","[1,2,9,3]","1","4","4","[{""button"":1,""time"":750},{""button"":2,""time"":1064},{""button"":9,""time"":1533},{""button"":3,""time"":2011},{""button"":""submit"",""time"":2884}]","","","","","","","","",""
"","","screen-check","44","166048","0.0-2.0-0.14","4","1","2024-03-20 00:49:53","c33429291dc7a384f95165972fddd116","171.66.13.161","Mozilla/5.0 (Macintosh; Intel Mac OS X 10_15_7) AppleWebKit/605.1.15 (KHTML, like Gecko) Version/17.2.1 Safari/605.1.15","Macintosh","Safari","17.2.1","OS X","10_15_7","null","en-US,en;q=0.9","258","364","1512","865","","","","","","","","","","","","","","","","","","","",""
"","null","html-keyboard-response","45","166549","0.0-2.0-1.14","4","1","2024-03-20 00:49:53","c33429291dc7a384f95165972fddd116","171.66.13.161","Mozilla/5.0 (Macintosh; Intel Mac OS X 10_15_7) AppleWebKit/605.1.15 (KHTML, like Gecko) Version/17.2.1 Safari/605.1.15","Macintosh","Safari","17.2.1","OS X","10_15_7","null","en-US,en;q=0.9","","","","","<p style=""font-size: 48px;"">+</p>","null","","","","","","","","","","","","","","","","","",""
"","2649","spatial-recall","46","172775","0.0-2.0-2.14","4","1","2024-03-20 00:49:53","c33429291dc7a384f95165972fddd116","171.66.13.161","Mozilla/5.0 (Macintosh; Intel Mac OS X 10_15_7) AppleWebKit/605.1.15 (KHTML, like Gecko) Version/17.2.1 Safari/605.1.15","Macintosh","Safari","17.2.1","OS X","10_15_7","null","en-US,en;q=0.9","","","","","","","[5,14,9,6]","4","518","false","[5,14,9,6]","1","4","4","[{""button"":5,""time"":584},{""button"":14,""time"":1080},{""button"":9,""time"":1579.000000000029},{""button"":6,""time"":2034},{""button"":""submit"",""time"":2649}]","","","","","","","","",""
"","","preload","47","172804","0.0-3.0","4","1","2024-03-20 00:49:53","c33429291dc7a384f95165972fddd116","171.66.13.161","Mozilla/5.0 (Macintosh; Intel Mac OS X 10_15_7) AppleWebKit/605.1.15 (KHTML, like Gecko) Version/17.2.1 Safari/605.1.15","Macintosh","Safari","17.2.1","OS X","10_15_7","null","en-US,en;q=0.9","","","","","","","","","","","","","","","","true","false","[]","[]","[]","","","",""
"","4679","html-keyboard-response","48","177485","0.0-4.0","4","1","2024-03-20 00:49:53","c33429291dc7a384f95165972fddd116","171.66.13.161","Mozilla/5.0 (Macintosh; Intel Mac OS X 10_15_7) AppleWebKit/605.1.15 (KHTML, like Gecko) Version/17.2.1 Safari/605.1.15","Macintosh","Safari","17.2.1","OS X","10_15_7","null","en-US,en;q=0.9","","","","","<p>You will now do a new task. Press any key to begin.</p>"," ","","","","","","","","","","","","","","","","","",""
"[{""page_index"":0,""viewing_time"":2245}]","2245","instructions","49","179733","0.0-5.0","4","1","2024-03-20 00:49:53","c33429291dc7a384f95165972fddd116","171.66.13.161","Mozilla/5.0 (Macintosh; Intel Mac OS X 10_15_7) AppleWebKit/605.1.15 (KHTML, like Gecko) Version/17.2.1 Safari/605.1.15","Macintosh","Safari","17.2.1","OS X","10_15_7","null","en-US,en;q=0.9","","","","","","","","","","","","","","","","","","","","","","","",""
"","10650","html-keyboard-response","50","190386","0.0-6.0","4","1","2024-03-20 00:49:53","c33429291dc7a384f95165972fddd116","171.66.13.161","Mozilla/5.0 (Macintosh; Intel Mac OS X 10_15_7) AppleWebKit/605.1.15 (KHTML, like Gecko) Version/17.2.1 Safari/605.1.15","Macintosh","Safari","17.2.1","OS X","10_15_7","null","en-US,en;q=0.9","","","","","
        <p>In this task, a circle will appear in the center
        of the screen.</p><p>If the circle is <strong>blue</strong>,
        press the letter F on the keyboard as fast as you can.</p>
        <p>If the circle is not <strong>blue</strong>, do not press a key.</p>
        <div style='width: 700px;'>
        <div style='float: left;'><img src='img/blue.png'></img>
        <p class='small'><strong>Press the F key</strong></p></div>
        <div style='float: right;'><img src='img/orange.png'></img>
        <p class='small'><strong>Do not press a key</strong></p></div>
        </div>
        <p>Press any key to begin.</p>
    "," ","","","","","","","","","","","","","","","","","",""
"","297","image-keyboard-response","51","192693","0.0-7.0-0.0","4","1","2024-03-20 00:49:53","c33429291dc7a384f95165972fddd116","171.66.13.161","Mozilla/5.0 (Macintosh; Intel Mac OS X 10_15_7) AppleWebKit/605.1.15 (KHTML, like Gecko) Version/17.2.1 Safari/605.1.15","Macintosh","Safari","17.2.1","OS X","10_15_7","null","en-US,en;q=0.9","","","","","img/blue.png","f","","","","","","","","","","","","","","","response","f","true",""
"","null","html-keyboard-response","52","194089","0.0-7.0-1.0","4","1","2024-03-20 00:49:53","c33429291dc7a384f95165972fddd116","171.66.13.161","Mozilla/5.0 (Macintosh; Intel Mac OS X 10_15_7) AppleWebKit/605.1.15 (KHTML, like Gecko) Version/17.2.1 Safari/605.1.15","Macintosh","Safari","17.2.1","OS X","10_15_7","null","en-US,en;q=0.9","","","","","<div style=""font-size:60px;"">+</div>","null","","","","","","","","","","","","","","","fixation","","","1390"
"","537","image-keyboard-response","53","194631","0.0-7.0-2.0","4","1","2024-03-20 00:49:53","c33429291dc7a384f95165972fddd116","171.66.13.161","Mozilla/5.0 (Macintosh; Intel Mac OS X 10_15_7) AppleWebKit/605.1.15 (KHTML, like Gecko) Version/17.2.1 Safari/605.1.15","Macintosh","Safari","17.2.1","OS X","10_15_7","null","en-US,en;q=0.9","","","","","img/blue.png","f","","","","","","","","","","","","","","","response","f","true",""
"","null","html-keyboard-response","54","196102","0.0-7.0-3.0","4","1","2024-03-20 00:49:53","c33429291dc7a384f95165972fddd116","171.66.13.161","Mozilla/5.0 (Macintosh; Intel Mac OS X 10_15_7) AppleWebKit/605.1.15 (KHTML, like Gecko) Version/17.2.1 Safari/605.1.15","Macintosh","Safari","17.2.1","OS X","10_15_7","null","en-US,en;q=0.9","","","","","<div style=""font-size:60px;"">+</div>","null","","","","","","","","","","","","","","","fixation","","","1467"
"","null","image-keyboard-response","55","197113","0.0-7.0-4.0","4","1","2024-03-20 00:49:53","c33429291dc7a384f95165972fddd116","171.66.13.161","Mozilla/5.0 (Macintosh; Intel Mac OS X 10_15_7) AppleWebKit/605.1.15 (KHTML, like Gecko) Version/17.2.1 Safari/605.1.15","Macintosh","Safari","17.2.1","OS X","10_15_7","null","en-US,en;q=0.9","","","","","img/orange.png","null","","","","","","","","","","","","","","","response","null","true",""
"","null","html-keyboard-response","56","198495","0.0-7.0-5.0","4","1","2024-03-20 00:49:53","c33429291dc7a384f95165972fddd116","171.66.13.161","Mozilla/5.0 (Macintosh; Intel Mac OS X 10_15_7) AppleWebKit/605.1.15 (KHTML, like Gecko) Version/17.2.1 Safari/605.1.15","Macintosh","Safari","17.2.1","OS X","10_15_7","null","en-US,en;q=0.9","","","","","<div style=""font-size:60px;"">+</div>","null","","","","","","","","","","","","","","","fixation","","","1377"
"","294","image-keyboard-response","57","198792","0.0-7.0-6.0","4","1","2024-03-20 00:49:53","c33429291dc7a384f95165972fddd116","171.66.13.161","Mozilla/5.0 (Macintosh; Intel Mac OS X 10_15_7) AppleWebKit/605.1.15 (KHTML, like Gecko) Version/17.2.1 Safari/605.1.15","Macintosh","Safari","17.2.1","OS X","10_15_7","null","en-US,en;q=0.9","","","","","img/blue.png","f","","","","","","","","","","","","","","","response","f","true",""
"","null","html-keyboard-response","58","200218","0.0-7.0-7.0","4","1","2024-03-20 00:49:53","c33429291dc7a384f95165972fddd116","171.66.13.161","Mozilla/5.0 (Macintosh; Intel Mac OS X 10_15_7) AppleWebKit/605.1.15 (KHTML, like Gecko) Version/17.2.1 Safari/605.1.15","Macintosh","Safari","17.2.1","OS X","10_15_7","null","en-US,en;q=0.9","","","","","<div style=""font-size:60px;"">+</div>","null","","","","","","","","","","","","","","","fixation","","","1422"
"","null","image-keyboard-response","59","201224","0.0-7.0-8.0","4","1","2024-03-20 00:49:53","c33429291dc7a384f95165972fddd116","171.66.13.161","Mozilla/5.0 (Macintosh; Intel Mac OS X 10_15_7) AppleWebKit/605.1.15 (KHTML, like Gecko) Version/17.2.1 Safari/605.1.15","Macintosh","Safari","17.2.1","OS X","10_15_7","null","en-US,en;q=0.9","","","","","img/orange.png","null","","","","","","","","","","","","","","","response","null","true",""
"","null","html-keyboard-response","60","202701","0.0-7.0-9.0","4","1","2024-03-20 00:49:53","c33429291dc7a384f95165972fddd116","171.66.13.161","Mozilla/5.0 (Macintosh; Intel Mac OS X 10_15_7) AppleWebKit/605.1.15 (KHTML, like Gecko) Version/17.2.1 Safari/605.1.15","Macintosh","Safari","17.2.1","OS X","10_15_7","null","en-US,en;q=0.9","","","","","<div style=""font-size:60px;"">+</div>","null","","","","","","","","","","","","","","","fixation","","","1473"
"","303","image-keyboard-response","61","203010","0.0-7.0-10.0","4","1","2024-03-20 00:49:53","c33429291dc7a384f95165972fddd116","171.66.13.161","Mozilla/5.0 (Macintosh; Intel Mac OS X 10_15_7) AppleWebKit/605.1.15 (KHTML, like Gecko) Version/17.2.1 Safari/605.1.15","Macintosh","Safari","17.2.1","OS X","10_15_7","null","en-US,en;q=0.9","","","","","img/blue.png","f","","","","","","","","","","","","","","","response","f","true",""
"","null","html-keyboard-response","62","204398","0.0-7.0-11.0","4","1","2024-03-20 00:49:53","c33429291dc7a384f95165972fddd116","171.66.13.161","Mozilla/5.0 (Macintosh; Intel Mac OS X 10_15_7) AppleWebKit/605.1.15 (KHTML, like Gecko) Version/17.2.1 Safari/605.1.15","Macintosh","Safari","17.2.1","OS X","10_15_7","null","en-US,en;q=0.9","","","","","<div style=""font-size:60px;"">+</div>","null","","","","","","","","","","","","","","","fixation","","","1384"
"","550","image-keyboard-response","63","204954","0.0-7.0-12.0","4","1","2024-03-20 00:49:53","c33429291dc7a384f95165972fddd116","171.66.13.161","Mozilla/5.0 (Macintosh; Intel Mac OS X 10_15_7) AppleWebKit/605.1.15 (KHTML, like Gecko) Version/17.2.1 Safari/605.1.15","Macintosh","Safari","17.2.1","OS X","10_15_7","null","en-US,en;q=0.9","","","","","img/blue.png","f","","","","","","","","","","","","","","","response","f","true",""
"","null","html-keyboard-response","64","206458","0.0-7.0-13.0","4","1","2024-03-20 00:49:53","c33429291dc7a384f95165972fddd116","171.66.13.161","Mozilla/5.0 (Macintosh; Intel Mac OS X 10_15_7) AppleWebKit/605.1.15 (KHTML, like Gecko) Version/17.2.1 Safari/605.1.15","Macintosh","Safari","17.2.1","OS X","10_15_7","null","en-US,en;q=0.9","","","","","<div style=""font-size:60px;"">+</div>","null","","","","","","","","","","","","","","","fixation","","","1500"
"","null","image-keyboard-response","65","208464","0.0-7.0-14.0","4","1","2024-03-20 00:49:53","c33429291dc7a384f95165972fddd116","171.66.13.161","Mozilla/5.0 (Macintosh; Intel Mac OS X 10_15_7) AppleWebKit/605.1.15 (KHTML, like Gecko) Version/17.2.1 Safari/605.1.15","Macintosh","Safari","17.2.1","OS X","10_15_7","null","en-US,en;q=0.9","","","","","img/orange.png","null","","","","","","","","","","","","","","","response","null","true",""
"","null","html-keyboard-response","66","209944","0.0-7.0-15.0","4","1","2024-03-20 00:49:53","c33429291dc7a384f95165972fddd116","171.66.13.161","Mozilla/5.0 (Macintosh; Intel Mac OS X 10_15_7) AppleWebKit/605.1.15 (KHTML, like Gecko) Version/17.2.1 Safari/605.1.15","Macintosh","Safari","17.2.1","OS X","10_15_7","null","en-US,en;q=0.9","","","","","<div style=""font-size:60px;"">+</div>","null","","","","","","","","","","","","","","","fixation","","","1471"
"","268","image-keyboard-response","67","210218","0.0-7.0-16.0","4","1","2024-03-20 00:49:53","c33429291dc7a384f95165972fddd116","171.66.13.161","Mozilla/5.0 (Macintosh; Intel Mac OS X 10_15_7) AppleWebKit/605.1.15 (KHTML, like Gecko) Version/17.2.1 Safari/605.1.15","Macintosh","Safari","17.2.1","OS X","10_15_7","null","en-US,en;q=0.9","","","","","img/blue.png","f","","","","","","","","","","","","","","","response","f","true",""
"","null","html-keyboard-response","68","211617","0.0-7.0-17.0","4","1","2024-03-20 00:49:53","c33429291dc7a384f95165972fddd116","171.66.13.161","Mozilla/5.0 (Macintosh; Intel Mac OS X 10_15_7) AppleWebKit/605.1.15 (KHTML, like Gecko) Version/17.2.1 Safari/605.1.15","Macintosh","Safari","17.2.1","OS X","10_15_7","null","en-US,en;q=0.9","","","","","<div style=""font-size:60px;"">+</div>","null","","","","","","","","","","","","","","","fixation","","","1395"
"","454","image-keyboard-response","69","212076","0.0-7.0-18.0","4","1","2024-03-20 00:49:53","c33429291dc7a384f95165972fddd116","171.66.13.161","Mozilla/5.0 (Macintosh; Intel Mac OS X 10_15_7) AppleWebKit/605.1.15 (KHTML, like Gecko) Version/17.2.1 Safari/605.1.15","Macintosh","Safari","17.2.1","OS X","10_15_7","null","en-US,en;q=0.9","","","","","img/blue.png","f","","","","","","","","","","","","","","","response","f","true",""
"","null","html-keyboard-response","70","213542","0.0-7.0-19.0","4","1","2024-03-20 00:49:53","c33429291dc7a384f95165972fddd116","171.66.13.161","Mozilla/5.0 (Macintosh; Intel Mac OS X 10_15_7) AppleWebKit/605.1.15 (KHTML, like Gecko) Version/17.2.1 Safari/605.1.15","Macintosh","Safari","17.2.1","OS X","10_15_7","null","en-US,en;q=0.9","","","","","<div style=""font-size:60px;"">+</div>","null","","","","","","","","","","","","","","","fixation","","","1462"
"","334","image-keyboard-response","71","213881","0.0-7.0-20.0","4","1","2024-03-20 00:49:53","c33429291dc7a384f95165972fddd116","171.66.13.161","Mozilla/5.0 (Macintosh; Intel Mac OS X 10_15_7) AppleWebKit/605.1.15 (KHTML, like Gecko) Version/17.2.1 Safari/605.1.15","Macintosh","Safari","17.2.1","OS X","10_15_7","null","en-US,en;q=0.9","","","","","img/blue.png","f","","","","","","","","","","","","","","","response","f","true",""
"","null","html-keyboard-response","72","215133","0.0-7.0-21.0","4","1","2024-03-20 00:49:53","c33429291dc7a384f95165972fddd116","171.66.13.161","Mozilla/5.0 (Macintosh; Intel Mac OS X 10_15_7) AppleWebKit/605.1.15 (KHTML, like Gecko) Version/17.2.1 Safari/605.1.15","Macintosh","Safari","17.2.1","OS X","10_15_7","null","en-US,en;q=0.9","","","","","<div style=""font-size:60px;"">+</div>","null","","","","","","","","","","","","","","","fixation","","","1245"
"","372","image-keyboard-response","73","215510","0.0-7.0-22.0","4","1","2024-03-20 00:49:53","c33429291dc7a384f95165972fddd116","171.66.13.161","Mozilla/5.0 (Macintosh; Intel Mac OS X 10_15_7) AppleWebKit/605.1.15 (KHTML, like Gecko) Version/17.2.1 Safari/605.1.15","Macintosh","Safari","17.2.1","OS X","10_15_7","null","en-US,en;q=0.9","","","","","img/blue.png","f","","","","","","","","","","","","","","","response","f","true",""
"","null","html-keyboard-response","74","216866","0.0-7.0-23.0","4","1","2024-03-20 00:49:53","c33429291dc7a384f95165972fddd116","171.66.13.161","Mozilla/5.0 (Macintosh; Intel Mac OS X 10_15_7) AppleWebKit/605.1.15 (KHTML, like Gecko) Version/17.2.1 Safari/605.1.15","Macintosh","Safari","17.2.1","OS X","10_15_7","null","en-US,en;q=0.9","","","","","<div style=""font-size:60px;"">+</div>","null","","","","","","","","","","","","","","","fixation","","","1352"
"","297","image-keyboard-response","75","217165","0.0-7.0-24.0","4","1","2024-03-20 00:49:53","c33429291dc7a384f95165972fddd116","171.66.13.161","Mozilla/5.0 (Macintosh; Intel Mac OS X 10_15_7) AppleWebKit/605.1.15 (KHTML, like Gecko) Version/17.2.1 Safari/605.1.15","Macintosh","Safari","17.2.1","OS X","10_15_7","null","en-US,en;q=0.9","","","","","img/blue.png","f","","","","","","","","","","","","","","","response","f","true",""
"","null","html-keyboard-response","76","218305","0.0-7.0-25.0","4","1","2024-03-20 00:49:53","c33429291dc7a384f95165972fddd116","171.66.13.161","Mozilla/5.0 (Macintosh; Intel Mac OS X 10_15_7) AppleWebKit/605.1.15 (KHTML, like Gecko) Version/17.2.1 Safari/605.1.15","Macintosh","Safari","17.2.1","OS X","10_15_7","null","en-US,en;q=0.9","","","","","<div style=""font-size:60px;"">+</div>","null","","","","","","","","","","","","","","","fixation","","","1135"
"","335","image-keyboard-response","77","218645","0.0-7.0-26.0","4","1","2024-03-20 00:49:53","c33429291dc7a384f95165972fddd116","171.66.13.161","Mozilla/5.0 (Macintosh; Intel Mac OS X 10_15_7) AppleWebKit/605.1.15 (KHTML, like Gecko) Version/17.2.1 Safari/605.1.15","Macintosh","Safari","17.2.1","OS X","10_15_7","null","en-US,en;q=0.9","","","","","img/blue.png","f","","","","","","","","","","","","","","","response","f","true",""
"","null","html-keyboard-response","78","219811","0.0-7.0-27.0","4","1","2024-03-20 00:49:53","c33429291dc7a384f95165972fddd116","171.66.13.161","Mozilla/5.0 (Macintosh; Intel Mac OS X 10_15_7) AppleWebKit/605.1.15 (KHTML, like Gecko) Version/17.2.1 Safari/605.1.15","Macintosh","Safari","17.2.1","OS X","10_15_7","null","en-US,en;q=0.9","","","","","<div style=""font-size:60px;"">+</div>","null","","","","","","","","","","","","","","","fixation","","","1162"
"","346","image-keyboard-response","79","220166","0.0-7.0-28.0","4","1","2024-03-20 00:49:53","c33429291dc7a384f95165972fddd116","171.66.13.161","Mozilla/5.0 (Macintosh; Intel Mac OS X 10_15_7) AppleWebKit/605.1.15 (KHTML, like Gecko) Version/17.2.1 Safari/605.1.15","Macintosh","Safari","17.2.1","OS X","10_15_7","null","en-US,en;q=0.9","","","","","img/blue.png","f","","","","","","","","","","","","","","","response","f","true",""
"","null","html-keyboard-response","80","221458","0.0-7.0-29.0","4","1","2024-03-20 00:49:53","c33429291dc7a384f95165972fddd116","171.66.13.161","Mozilla/5.0 (Macintosh; Intel Mac OS X 10_15_7) AppleWebKit/605.1.15 (KHTML, like Gecko) Version/17.2.1 Safari/605.1.15","Macintosh","Safari","17.2.1","OS X","10_15_7","null","en-US,en;q=0.9","","","","","<div style=""font-size:60px;"">+</div>","null","","","","","","","","","","","","","","","fixation","","","1287"
"","293","image-keyboard-response","81","221757","0.0-7.0-30.0","4","1","2024-03-20 00:49:53","c33429291dc7a384f95165972fddd116","171.66.13.161","Mozilla/5.0 (Macintosh; Intel Mac OS X 10_15_7) AppleWebKit/605.1.15 (KHTML, like Gecko) Version/17.2.1 Safari/605.1.15","Macintosh","Safari","17.2.1","OS X","10_15_7","null","en-US,en;q=0.9","","","","","img/blue.png","f","","","","","","","","","","","","","","","response","f","true",""
"","null","html-keyboard-response","82","222904","0.0-7.0-31.0","4","1","2024-03-20 00:49:53","c33429291dc7a384f95165972fddd116","171.66.13.161","Mozilla/5.0 (Macintosh; Intel Mac OS X 10_15_7) AppleWebKit/605.1.15 (KHTML, like Gecko) Version/17.2.1 Safari/605.1.15","Macintosh","Safari","17.2.1","OS X","10_15_7","null","en-US,en;q=0.9","","","","","<div style=""font-size:60px;"">+</div>","null","","","","","","","","","","","","","","","fixation","","","1143"
"","null","image-keyboard-response","83","224910","0.0-7.0-32.0","4","1","2024-03-20 00:49:53","c33429291dc7a384f95165972fddd116","171.66.13.161","Mozilla/5.0 (Macintosh; Intel Mac OS X 10_15_7) AppleWebKit/605.1.15 (KHTML, like Gecko) Version/17.2.1 Safari/605.1.15","Macintosh","Safari","17.2.1","OS X","10_15_7","null","en-US,en;q=0.9","","","","","img/orange.png","null","","","","","","","","","","","","","","","response","null","true",""
"","null","html-keyboard-response","84","226198","0.0-7.0-33.0","4","1","2024-03-20 00:49:53","c33429291dc7a384f95165972fddd116","171.66.13.161","Mozilla/5.0 (Macintosh; Intel Mac OS X 10_15_7) AppleWebKit/605.1.15 (KHTML, like Gecko) Version/17.2.1 Safari/605.1.15","Macintosh","Safari","17.2.1","OS X","10_15_7","null","en-US,en;q=0.9","","","","","<div style=""font-size:60px;"">+</div>","null","","","","","","","","","","","","","","","fixation","","","1279"
"","321","image-keyboard-response","85","226525","0.0-7.0-34.0","4","1","2024-03-20 00:49:53","c33429291dc7a384f95165972fddd116","171.66.13.161","Mozilla/5.0 (Macintosh; Intel Mac OS X 10_15_7) AppleWebKit/605.1.15 (KHTML, like Gecko) Version/17.2.1 Safari/605.1.15","Macintosh","Safari","17.2.1","OS X","10_15_7","null","en-US,en;q=0.9","","","","","img/blue.png","f","","","","","","","","","","","","","","","response","f","true",""
"","null","html-keyboard-response","86","227712","0.0-7.0-35.0","4","1","2024-03-20 00:49:53","c33429291dc7a384f95165972fddd116","171.66.13.161","Mozilla/5.0 (Macintosh; Intel Mac OS X 10_15_7) AppleWebKit/605.1.15 (KHTML, like Gecko) Version/17.2.1 Safari/605.1.15","Macintosh","Safari","17.2.1","OS X","10_15_7","null","en-US,en;q=0.9","","","","","<div style=""font-size:60px;"">+</div>","null","","","","","","","","","","","","","","","fixation","","","1181"
"","377","image-keyboard-response","87","228093","0.0-7.0-36.0","4","1","2024-03-20 00:49:53","c33429291dc7a384f95165972fddd116","171.66.13.161","Mozilla/5.0 (Macintosh; Intel Mac OS X 10_15_7) AppleWebKit/605.1.15 (KHTML, like Gecko) Version/17.2.1 Safari/605.1.15","Macintosh","Safari","17.2.1","OS X","10_15_7","null","en-US,en;q=0.9","","","","","img/blue.png","f","","","","","","","","","","","","","","","response","f","true",""
"","null","html-keyboard-response","88","229406","0.0-7.0-37.0","4","1","2024-03-20 00:49:53","c33429291dc7a384f95165972fddd116","171.66.13.161","Mozilla/5.0 (Macintosh; Intel Mac OS X 10_15_7) AppleWebKit/605.1.15 (KHTML, like Gecko) Version/17.2.1 Safari/605.1.15","Macintosh","Safari","17.2.1","OS X","10_15_7","null","en-US,en;q=0.9","","","","","<div style=""font-size:60px;"">+</div>","null","","","","","","","","","","","","","","","fixation","","","1308"
"","347","image-keyboard-response","89","229758","0.0-7.0-38.0","4","1","2024-03-20 00:49:53","c33429291dc7a384f95165972fddd116","171.66.13.161","Mozilla/5.0 (Macintosh; Intel Mac OS X 10_15_7) AppleWebKit/605.1.15 (KHTML, like Gecko) Version/17.2.1 Safari/605.1.15","Macintosh","Safari","17.2.1","OS X","10_15_7","null","en-US,en;q=0.9","","","","","img/blue.png","f","","","","","","","","","","","","","","","response","f","true",""
"","null","html-keyboard-response","90","230978","0.0-7.0-39.0","4","1","2024-03-20 00:49:53","c33429291dc7a384f95165972fddd116","171.66.13.161","Mozilla/5.0 (Macintosh; Intel Mac OS X 10_15_7) AppleWebKit/605.1.15 (KHTML, like Gecko) Version/17.2.1 Safari/605.1.15","Macintosh","Safari","17.2.1","OS X","10_15_7","null","en-US,en;q=0.9","","","","","<div style=""font-size:60px;"">+</div>","null","","","","","","","","","","","","","","","fixation","","","1214"
"","424","image-keyboard-response","91","231409","0.0-7.0-40.0","4","1","2024-03-20 00:49:53","c33429291dc7a384f95165972fddd116","171.66.13.161","Mozilla/5.0 (Macintosh; Intel Mac OS X 10_15_7) AppleWebKit/605.1.15 (KHTML, like Gecko) Version/17.2.1 Safari/605.1.15","Macintosh","Safari","17.2.1","OS X","10_15_7","null","en-US,en;q=0.9","","","","","img/blue.png","f","","","","","","","","","","","","","","","response","f","true",""
"","null","html-keyboard-response","92","232423","0.0-7.0-41.0","4","1","2024-03-20 00:49:53","c33429291dc7a384f95165972fddd116","171.66.13.161","Mozilla/5.0 (Macintosh; Intel Mac OS X 10_15_7) AppleWebKit/605.1.15 (KHTML, like Gecko) Version/17.2.1 Safari/605.1.15","Macintosh","Safari","17.2.1","OS X","10_15_7","null","en-US,en;q=0.9","","","","","<div style=""font-size:60px;"">+</div>","null","","","","","","","","","","","","","","","fixation","","","1009"
"","533","image-keyboard-response","93","232961","0.0-7.0-42.0","4","1","2024-03-20 00:49:53","c33429291dc7a384f95165972fddd116","171.66.13.161","Mozilla/5.0 (Macintosh; Intel Mac OS X 10_15_7) AppleWebKit/605.1.15 (KHTML, like Gecko) Version/17.2.1 Safari/605.1.15","Macintosh","Safari","17.2.1","OS X","10_15_7","null","en-US,en;q=0.9","","","","","img/blue.png","f","","","","","","","","","","","","","","","response","f","true",""
"","null","html-keyboard-response","94","233911","0.0-7.0-43.0","4","1","2024-03-20 00:49:53","c33429291dc7a384f95165972fddd116","171.66.13.161","Mozilla/5.0 (Macintosh; Intel Mac OS X 10_15_7) AppleWebKit/605.1.15 (KHTML, like Gecko) Version/17.2.1 Safari/605.1.15","Macintosh","Safari","17.2.1","OS X","10_15_7","null","en-US,en;q=0.9","","","","","<div style=""font-size:60px;"">+</div>","null","","","","","","","","","","","","","","","fixation","","","946"
"","328","image-keyboard-response","95","234244","0.0-7.0-44.0","4","1","2024-03-20 00:49:53","c33429291dc7a384f95165972fddd116","171.66.13.161","Mozilla/5.0 (Macintosh; Intel Mac OS X 10_15_7) AppleWebKit/605.1.15 (KHTML, like Gecko) Version/17.2.1 Safari/605.1.15","Macintosh","Safari","17.2.1","OS X","10_15_7","null","en-US,en;q=0.9","","","","","img/blue.png","f","","","","","","","","","","","","","","","response","f","true",""
"","null","html-keyboard-response","96","235191","0.0-7.0-45.0","4","1","2024-03-20 00:49:53","c33429291dc7a384f95165972fddd116","171.66.13.161","Mozilla/5.0 (Macintosh; Intel Mac OS X 10_15_7) AppleWebKit/605.1.15 (KHTML, like Gecko) Version/17.2.1 Safari/605.1.15","Macintosh","Safari","17.2.1","OS X","10_15_7","null","en-US,en;q=0.9","","","","","<div style=""font-size:60px;"">+</div>","null","","","","","","","","","","","","","","","fixation","","","942"
"","300","image-keyboard-response","97","235497","0.0-7.0-46.0","4","1","2024-03-20 00:49:53","c33429291dc7a384f95165972fddd116","171.66.13.161","Mozilla/5.0 (Macintosh; Intel Mac OS X 10_15_7) AppleWebKit/605.1.15 (KHTML, like Gecko) Version/17.2.1 Safari/605.1.15","Macintosh","Safari","17.2.1","OS X","10_15_7","null","en-US,en;q=0.9","","","","","img/blue.png","f","","","","","","","","","","","","","","","response","f","true",""
"","null","html-keyboard-response","98","236473","0.0-7.0-47.0","4","1","2024-03-20 00:49:53","c33429291dc7a384f95165972fddd116","171.66.13.161","Mozilla/5.0 (Macintosh; Intel Mac OS X 10_15_7) AppleWebKit/605.1.15 (KHTML, like Gecko) Version/17.2.1 Safari/605.1.15","Macintosh","Safari","17.2.1","OS X","10_15_7","null","en-US,en;q=0.9","","","","","<div style=""font-size:60px;"">+</div>","null","","","","","","","","","","","","","","","fixation","","","970"
"","304","image-keyboard-response","99","236781","0.0-7.0-48.0","4","1","2024-03-20 00:49:53","c33429291dc7a384f95165972fddd116","171.66.13.161","Mozilla/5.0 (Macintosh; Intel Mac OS X 10_15_7) AppleWebKit/605.1.15 (KHTML, like Gecko) Version/17.2.1 Safari/605.1.15","Macintosh","Safari","17.2.1","OS X","10_15_7","null","en-US,en;q=0.9","","","","","img/blue.png","f","","","","","","","","","","","","","","","response","f","true",""
"","null","html-keyboard-response","100","237872","0.0-7.0-49.0","4","1","2024-03-20 00:49:53","c33429291dc7a384f95165972fddd116","171.66.13.161","Mozilla/5.0 (Macintosh; Intel Mac OS X 10_15_7) AppleWebKit/605.1.15 (KHTML, like Gecko) Version/17.2.1 Safari/605.1.15","Macintosh","Safari","17.2.1","OS X","10_15_7","null","en-US,en;q=0.9","","","","","<div style=""font-size:60px;"">+</div>","null","","","","","","","","","","","","","","","fixation","","","1083"
"","269","image-keyboard-response","101","238146","0.0-7.0-50.0","4","1","2024-03-20 00:49:53","c33429291dc7a384f95165972fddd116","171.66.13.161","Mozilla/5.0 (Macintosh; Intel Mac OS X 10_15_7) AppleWebKit/605.1.15 (KHTML, like Gecko) Version/17.2.1 Safari/605.1.15","Macintosh","Safari","17.2.1","OS X","10_15_7","null","en-US,en;q=0.9","","","","","img/blue.png","f","","","","","","","","","","","","","","","response","f","true",""
"","null","html-keyboard-response","102","239122","0.0-7.0-51.0","4","1","2024-03-20 00:49:53","c33429291dc7a384f95165972fddd116","171.66.13.161","Mozilla/5.0 (Macintosh; Intel Mac OS X 10_15_7) AppleWebKit/605.1.15 (KHTML, like Gecko) Version/17.2.1 Safari/605.1.15","Macintosh","Safari","17.2.1","OS X","10_15_7","null","en-US,en;q=0.9","","","","","<div style=""font-size:60px;"">+</div>","null","","","","","","","","","","","","","","","fixation","","","971"
"","451","image-keyboard-response","103","239579","0.0-7.0-52.0","4","1","2024-03-20 00:49:53","c33429291dc7a384f95165972fddd116","171.66.13.161","Mozilla/5.0 (Macintosh; Intel Mac OS X 10_15_7) AppleWebKit/605.1.15 (KHTML, like Gecko) Version/17.2.1 Safari/605.1.15","Macintosh","Safari","17.2.1","OS X","10_15_7","null","en-US,en;q=0.9","","","","","img/blue.png","f","","","","","","","","","","","","","","","response","f","true",""
"","null","html-keyboard-response","104","240650","0.0-7.0-53.0","4","1","2024-03-20 00:49:53","c33429291dc7a384f95165972fddd116","171.66.13.161","Mozilla/5.0 (Macintosh; Intel Mac OS X 10_15_7) AppleWebKit/605.1.15 (KHTML, like Gecko) Version/17.2.1 Safari/605.1.15","Macintosh","Safari","17.2.1","OS X","10_15_7","null","en-US,en;q=0.9","","","","","<div style=""font-size:60px;"">+</div>","null","","","","","","","","","","","","","","","fixation","","","1066"
"","248","image-keyboard-response","105","240903","0.0-7.0-54.0","4","1","2024-03-20 00:49:53","c33429291dc7a384f95165972fddd116","171.66.13.161","Mozilla/5.0 (Macintosh; Intel Mac OS X 10_15_7) AppleWebKit/605.1.15 (KHTML, like Gecko) Version/17.2.1 Safari/605.1.15","Macintosh","Safari","17.2.1","OS X","10_15_7","null","en-US,en;q=0.9","","","","","img/blue.png","f","","","","","","","","","","","","","","","response","f","true",""
"","null","html-keyboard-response","106","241825","0.0-7.0-55.0","4","1","2024-03-20 00:49:53","c33429291dc7a384f95165972fddd116","171.66.13.161","Mozilla/5.0 (Macintosh; Intel Mac OS X 10_15_7) AppleWebKit/605.1.15 (KHTML, like Gecko) Version/17.2.1 Safari/605.1.15","Macintosh","Safari","17.2.1","OS X","10_15_7","null","en-US,en;q=0.9","","","","","<div style=""font-size:60px;"">+</div>","null","","","","","","","","","","","","","","","fixation","","","914"
"","null","image-keyboard-response","107","243832","0.0-7.0-56.0","4","1","2024-03-20 00:49:53","c33429291dc7a384f95165972fddd116","171.66.13.161","Mozilla/5.0 (Macintosh; Intel Mac OS X 10_15_7) AppleWebKit/605.1.15 (KHTML, like Gecko) Version/17.2.1 Safari/605.1.15","Macintosh","Safari","17.2.1","OS X","10_15_7","null","en-US,en;q=0.9","","","","","img/orange.png","null","","","","","","","","","","","","","","","response","null","true",""
"","null","html-keyboard-response","108","244788","0.0-7.0-57.0","4","1","2024-03-20 00:49:53","c33429291dc7a384f95165972fddd116","171.66.13.161","Mozilla/5.0 (Macintosh; Intel Mac OS X 10_15_7) AppleWebKit/605.1.15 (KHTML, like Gecko) Version/17.2.1 Safari/605.1.15","Macintosh","Safari","17.2.1","OS X","10_15_7","null","en-US,en;q=0.9","","","","","<div style=""font-size:60px;"">+</div>","null","","","","","","","","","","","","","","","fixation","","","950"
"","null","image-keyboard-response","109","245796","0.0-7.0-58.0","4","1","2024-03-20 00:49:53","c33429291dc7a384f95165972fddd116","171.66.13.161","Mozilla/5.0 (Macintosh; Intel Mac OS X 10_15_7) AppleWebKit/605.1.15 (KHTML, like Gecko) Version/17.2.1 Safari/605.1.15","Macintosh","Safari","17.2.1","OS X","10_15_7","null","en-US,en;q=0.9","","","","","img/orange.png","null","","","","","","","","","","","","","","","response","null","true",""
"","null","html-keyboard-response","110","246701","0.0-7.0-59.0","4","1","2024-03-20 00:49:53","c33429291dc7a384f95165972fddd116","171.66.13.161","Mozilla/5.0 (Macintosh; Intel Mac OS X 10_15_7) AppleWebKit/605.1.15 (KHTML, like Gecko) Version/17.2.1 Safari/605.1.15","Macintosh","Safari","17.2.1","OS X","10_15_7","null","en-US,en;q=0.9","","","","","<div style=""font-size:60px;"">+</div>","null","","","","","","","","","","","","","","","fixation","","","899"
"","381","image-keyboard-response","111","247087","0.0-7.0-0.1","4","1","2024-03-20 00:49:53","c33429291dc7a384f95165972fddd116","171.66.13.161","Mozilla/5.0 (Macintosh; Intel Mac OS X 10_15_7) AppleWebKit/605.1.15 (KHTML, like Gecko) Version/17.2.1 Safari/605.1.15","Macintosh","Safari","17.2.1","OS X","10_15_7","null","en-US,en;q=0.9","","","","","img/blue.png","f","","","","","","","","","","","","","","","response","f","true",""
"","null","html-keyboard-response","112","248482","0.0-7.0-1.1","4","1","2024-03-20 00:49:53","c33429291dc7a384f95165972fddd116","171.66.13.161","Mozilla/5.0 (Macintosh; Intel Mac OS X 10_15_7) AppleWebKit/605.1.15 (KHTML, like Gecko) Version/17.2.1 Safari/605.1.15","Macintosh","Safari","17.2.1","OS X","10_15_7","null","en-US,en;q=0.9","","","","","<div style=""font-size:60px;"">+</div>","null","","","","","","","","","","","","","","","fixation","","","1390"
"","379","image-keyboard-response","113","248867","0.0-7.0-2.1","4","1","2024-03-20 00:49:53","c33429291dc7a384f95165972fddd116","171.66.13.161","Mozilla/5.0 (Macintosh; Intel Mac OS X 10_15_7) AppleWebKit/605.1.15 (KHTML, like Gecko) Version/17.2.1 Safari/605.1.15","Macintosh","Safari","17.2.1","OS X","10_15_7","null","en-US,en;q=0.9","","","","","img/blue.png","f","","","","","","","","","","","","","","","response","f","true",""
"","null","html-keyboard-response","114","250338","0.0-7.0-3.1","4","1","2024-03-20 00:49:53","c33429291dc7a384f95165972fddd116","171.66.13.161","Mozilla/5.0 (Macintosh; Intel Mac OS X 10_15_7) AppleWebKit/605.1.15 (KHTML, like Gecko) Version/17.2.1 Safari/605.1.15","Macintosh","Safari","17.2.1","OS X","10_15_7","null","en-US,en;q=0.9","","","","","<div style=""font-size:60px;"">+</div>","null","","","","","","","","","","","","","","","fixation","","","1467"
"","null","image-keyboard-response","115","251347","0.0-7.0-4.1","4","1","2024-03-20 00:49:53","c33429291dc7a384f95165972fddd116","171.66.13.161","Mozilla/5.0 (Macintosh; Intel Mac OS X 10_15_7) AppleWebKit/605.1.15 (KHTML, like Gecko) Version/17.2.1 Safari/605.1.15","Macintosh","Safari","17.2.1","OS X","10_15_7","null","en-US,en;q=0.9","","","","","img/orange.png","null","","","","","","","","","","","","","","","response","null","true",""
"","null","html-keyboard-response","116","252731","0.0-7.0-5.1","4","1","2024-03-20 00:49:53","c33429291dc7a384f95165972fddd116","171.66.13.161","Mozilla/5.0 (Macintosh; Intel Mac OS X 10_15_7) AppleWebKit/605.1.15 (KHTML, like Gecko) Version/17.2.1 Safari/605.1.15","Macintosh","Safari","17.2.1","OS X","10_15_7","null","en-US,en;q=0.9","","","","","<div style=""font-size:60px;"">+</div>","null","","","","","","","","","","","","","","","fixation","","","1377"
"","302","image-keyboard-response","117","253039","0.0-7.0-6.1","4","1","2024-03-20 00:49:53","c33429291dc7a384f95165972fddd116","171.66.13.161","Mozilla/5.0 (Macintosh; Intel Mac OS X 10_15_7) AppleWebKit/605.1.15 (KHTML, like Gecko) Version/17.2.1 Safari/605.1.15","Macintosh","Safari","17.2.1","OS X","10_15_7","null","en-US,en;q=0.9","","","","","img/blue.png","f","","","","","","","","","","","","","","","response","f","true",""
"","null","html-keyboard-response","118","254466","0.0-7.0-7.1","4","1","2024-03-20 00:49:53","c33429291dc7a384f95165972fddd116","171.66.13.161","Mozilla/5.0 (Macintosh; Intel Mac OS X 10_15_7) AppleWebKit/605.1.15 (KHTML, like Gecko) Version/17.2.1 Safari/605.1.15","Macintosh","Safari","17.2.1","OS X","10_15_7","null","en-US,en;q=0.9","","","","","<div style=""font-size:60px;"">+</div>","null","","","","","","","","","","","","","","","fixation","","","1422"
"","null","image-keyboard-response","119","255473","0.0-7.0-8.1","4","1","2024-03-20 00:49:53","c33429291dc7a384f95165972fddd116","171.66.13.161","Mozilla/5.0 (Macintosh; Intel Mac OS X 10_15_7) AppleWebKit/605.1.15 (KHTML, like Gecko) Version/17.2.1 Safari/605.1.15","Macintosh","Safari","17.2.1","OS X","10_15_7","null","en-US,en;q=0.9","","","","","img/orange.png","null","","","","","","","","","","","","","","","response","null","true",""
"","null","html-keyboard-response","120","256952","0.0-7.0-9.1","4","1","2024-03-20 00:49:53","c33429291dc7a384f95165972fddd116","171.66.13.161","Mozilla/5.0 (Macintosh; Intel Mac OS X 10_15_7) AppleWebKit/605.1.15 (KHTML, like Gecko) Version/17.2.1 Safari/605.1.15","Macintosh","Safari","17.2.1","OS X","10_15_7","null","en-US,en;q=0.9","","","","","<div style=""font-size:60px;"">+</div>","null","","","","","","","","","","","","","","","fixation","","","1473"
"","370","image-keyboard-response","121","257329","0.0-7.0-10.1","4","1","2024-03-20 00:49:53","c33429291dc7a384f95165972fddd116","171.66.13.161","Mozilla/5.0 (Macintosh; Intel Mac OS X 10_15_7) AppleWebKit/605.1.15 (KHTML, like Gecko) Version/17.2.1 Safari/605.1.15","Macintosh","Safari","17.2.1","OS X","10_15_7","null","en-US,en;q=0.9","","","","","img/blue.png","f","","","","","","","","","","","","","","","response","f","true",""
"","null","html-keyboard-response","122","258719","0.0-7.0-11.1","4","1","2024-03-20 00:49:53","c33429291dc7a384f95165972fddd116","171.66.13.161","Mozilla/5.0 (Macintosh; Intel Mac OS X 10_15_7) AppleWebKit/605.1.15 (KHTML, like Gecko) Version/17.2.1 Safari/605.1.15","Macintosh","Safari","17.2.1","OS X","10_15_7","null","en-US,en;q=0.9","","","","","<div style=""font-size:60px;"">+</div>","null","","","","","","","","","","","","","","","fixation","","","1384"
"","416","image-keyboard-response","123","259142","0.0-7.0-12.1","4","1","2024-03-20 00:49:53","c33429291dc7a384f95165972fddd116","171.66.13.161","Mozilla/5.0 (Macintosh; Intel Mac OS X 10_15_7) AppleWebKit/605.1.15 (KHTML, like Gecko) Version/17.2.1 Safari/605.1.15","Macintosh","Safari","17.2.1","OS X","10_15_7","null","en-US,en;q=0.9","","","","","img/blue.png","f","","","","","","","","","","","","","","","response","f","true",""
"","null","html-keyboard-response","124","260647","0.0-7.0-13.1","4","1","2024-03-20 00:49:53","c33429291dc7a384f95165972fddd116","171.66.13.161","Mozilla/5.0 (Macintosh; Intel Mac OS X 10_15_7) AppleWebKit/605.1.15 (KHTML, like Gecko) Version/17.2.1 Safari/605.1.15","Macintosh","Safari","17.2.1","OS X","10_15_7","null","en-US,en;q=0.9","","","","","<div style=""font-size:60px;"">+</div>","null","","","","","","","","","","","","","","","fixation","","","1500"
"","null","image-keyboard-response","125","262654","0.0-7.0-14.1","4","1","2024-03-20 00:49:53","c33429291dc7a384f95165972fddd116","171.66.13.161","Mozilla/5.0 (Macintosh; Intel Mac OS X 10_15_7) AppleWebKit/605.1.15 (KHTML, like Gecko) Version/17.2.1 Safari/605.1.15","Macintosh","Safari","17.2.1","OS X","10_15_7","null","en-US,en;q=0.9","","","","","img/orange.png","null","","","","","","","","","","","","","","","response","null","true",""
"","null","html-keyboard-response","126","264135","0.0-7.0-15.1","4","1","2024-03-20 00:49:53","c33429291dc7a384f95165972fddd116","171.66.13.161","Mozilla/5.0 (Macintosh; Intel Mac OS X 10_15_7) AppleWebKit/605.1.15 (KHTML, like Gecko) Version/17.2.1 Safari/605.1.15","Macintosh","Safari","17.2.1","OS X","10_15_7","null","en-US,en;q=0.9","","","","","<div style=""font-size:60px;"">+</div>","null","","","","","","","","","","","","","","","fixation","","","1471"
"","301","image-keyboard-response","127","264444","0.0-7.0-16.1","4","1","2024-03-20 00:49:53","c33429291dc7a384f95165972fddd116","171.66.13.161","Mozilla/5.0 (Macintosh; Intel Mac OS X 10_15_7) AppleWebKit/605.1.15 (KHTML, like Gecko) Version/17.2.1 Safari/605.1.15","Macintosh","Safari","17.2.1","OS X","10_15_7","null","en-US,en;q=0.9","","","","","img/blue.png","f","","","","","","","","","","","","","","","response","f","true",""
"","null","html-keyboard-response","128","265845","0.0-7.0-17.1","4","1","2024-03-20 00:49:53","c33429291dc7a384f95165972fddd116","171.66.13.161","Mozilla/5.0 (Macintosh; Intel Mac OS X 10_15_7) AppleWebKit/605.1.15 (KHTML, like Gecko) Version/17.2.1 Safari/605.1.15","Macintosh","Safari","17.2.1","OS X","10_15_7","null","en-US,en;q=0.9","","","","","<div style=""font-size:60px;"">+</div>","null","","","","","","","","","","","","","","","fixation","","","1395"
"","383","image-keyboard-response","129","266235","0.0-7.0-18.1","4","1","2024-03-20 00:49:53","c33429291dc7a384f95165972fddd116","171.66.13.161","Mozilla/5.0 (Macintosh; Intel Mac OS X 10_15_7) AppleWebKit/605.1.15 (KHTML, like Gecko) Version/17.2.1 Safari/605.1.15","Macintosh","Safari","17.2.1","OS X","10_15_7","null","en-US,en;q=0.9","","","","","img/blue.png","f","","","","","","","","","","","","","","","response","f","true",""
"","null","html-keyboard-response","130","267701","0.0-7.0-19.1","4","1","2024-03-20 00:49:53","c33429291dc7a384f95165972fddd116","171.66.13.161","Mozilla/5.0 (Macintosh; Intel Mac OS X 10_15_7) AppleWebKit/605.1.15 (KHTML, like Gecko) Version/17.2.1 Safari/605.1.15","Macintosh","Safari","17.2.1","OS X","10_15_7","null","en-US,en;q=0.9","","","","","<div style=""font-size:60px;"">+</div>","null","","","","","","","","","","","","","","","fixation","","","1462"
"","417","image-keyboard-response","131","268125","0.0-7.0-20.1","4","1","2024-03-20 00:49:53","c33429291dc7a384f95165972fddd116","171.66.13.161","Mozilla/5.0 (Macintosh; Intel Mac OS X 10_15_7) AppleWebKit/605.1.15 (KHTML, like Gecko) Version/17.2.1 Safari/605.1.15","Macintosh","Safari","17.2.1","OS X","10_15_7","null","en-US,en;q=0.9","","","","","img/blue.png","f","","","","","","","","","","","","","","","response","f","true",""
"","null","html-keyboard-response","132","269375","0.0-7.0-21.1","4","1","2024-03-20 00:49:53","c33429291dc7a384f95165972fddd116","171.66.13.161","Mozilla/5.0 (Macintosh; Intel Mac OS X 10_15_7) AppleWebKit/605.1.15 (KHTML, like Gecko) Version/17.2.1 Safari/605.1.15","Macintosh","Safari","17.2.1","OS X","10_15_7","null","en-US,en;q=0.9","","","","","<div style=""font-size:60px;"">+</div>","null","","","","","","","","","","","","","","","fixation","","","1245"
"","380","image-keyboard-response","133","269761","0.0-7.0-22.1","4","1","2024-03-20 00:49:53","c33429291dc7a384f95165972fddd116","171.66.13.161","Mozilla/5.0 (Macintosh; Intel Mac OS X 10_15_7) AppleWebKit/605.1.15 (KHTML, like Gecko) Version/17.2.1 Safari/605.1.15","Macintosh","Safari","17.2.1","OS X","10_15_7","null","en-US,en;q=0.9","","","","","img/blue.png","f","","","","","","","","","","","","","","","response","f","true",""
"","null","html-keyboard-response","134","271118","0.0-7.0-23.1","4","1","2024-03-20 00:49:53","c33429291dc7a384f95165972fddd116","171.66.13.161","Mozilla/5.0 (Macintosh; Intel Mac OS X 10_15_7) AppleWebKit/605.1.15 (KHTML, like Gecko) Version/17.2.1 Safari/605.1.15","Macintosh","Safari","17.2.1","OS X","10_15_7","null","en-US,en;q=0.9","","","","","<div style=""font-size:60px;"">+</div>","null","","","","","","","","","","","","","","","fixation","","","1352"
"","329","image-keyboard-response","135","271454","0.0-7.0-24.1","4","1","2024-03-20 00:49:53","c33429291dc7a384f95165972fddd116","171.66.13.161","Mozilla/5.0 (Macintosh; Intel Mac OS X 10_15_7) AppleWebKit/605.1.15 (KHTML, like Gecko) Version/17.2.1 Safari/605.1.15","Macintosh","Safari","17.2.1","OS X","10_15_7","null","en-US,en;q=0.9","","","","","img/blue.png","f","","","","","","","","","","","","","","","response","f","true",""
"","null","html-keyboard-response","136","272596","0.0-7.0-25.1","4","1","2024-03-20 00:49:53","c33429291dc7a384f95165972fddd116","171.66.13.161","Mozilla/5.0 (Macintosh; Intel Mac OS X 10_15_7) AppleWebKit/605.1.15 (KHTML, like Gecko) Version/17.2.1 Safari/605.1.15","Macintosh","Safari","17.2.1","OS X","10_15_7","null","en-US,en;q=0.9","","","","","<div style=""font-size:60px;"">+</div>","null","","","","","","","","","","","","","","","fixation","","","1135"
"","331","image-keyboard-response","137","272934","0.0-7.0-26.1","4","1","2024-03-20 00:49:53","c33429291dc7a384f95165972fddd116","171.66.13.161","Mozilla/5.0 (Macintosh; Intel Mac OS X 10_15_7) AppleWebKit/605.1.15 (KHTML, like Gecko) Version/17.2.1 Safari/605.1.15","Macintosh","Safari","17.2.1","OS X","10_15_7","null","en-US,en;q=0.9","","","","","img/blue.png","f","","","","","","","","","","","","","","","response","f","true",""
"","null","html-keyboard-response","138","274101","0.0-7.0-27.1","4","1","2024-03-20 00:49:53","c33429291dc7a384f95165972fddd116","171.66.13.161","Mozilla/5.0 (Macintosh; Intel Mac OS X 10_15_7) AppleWebKit/605.1.15 (KHTML, like Gecko) Version/17.2.1 Safari/605.1.15","Macintosh","Safari","17.2.1","OS X","10_15_7","null","en-US,en;q=0.9","","","","","<div style=""font-size:60px;"">+</div>","null","","","","","","","","","","","","","","","fixation","","","1162"
"","263","image-keyboard-response","139","274369","0.0-7.0-28.1","4","1","2024-03-20 00:49:53","c33429291dc7a384f95165972fddd116","171.66.13.161","Mozilla/5.0 (Macintosh; Intel Mac OS X 10_15_7) AppleWebKit/605.1.15 (KHTML, like Gecko) Version/17.2.1 Safari/605.1.15","Macintosh","Safari","17.2.1","OS X","10_15_7","null","en-US,en;q=0.9","","","","","img/blue.png","f","","","","","","","","","","","","","","","response","f","true",""
"","null","html-keyboard-response","140","275662","0.0-7.0-29.1","4","1","2024-03-20 00:49:53","c33429291dc7a384f95165972fddd116","171.66.13.161","Mozilla/5.0 (Macintosh; Intel Mac OS X 10_15_7) AppleWebKit/605.1.15 (KHTML, like Gecko) Version/17.2.1 Safari/605.1.15","Macintosh","Safari","17.2.1","OS X","10_15_7","null","en-US,en;q=0.9","","","","","<div style=""font-size:60px;"">+</div>","null","","","","","","","","","","","","","","","fixation","","","1287"
"","261","image-keyboard-response","141","275929","0.0-7.0-30.1","4","1","2024-03-20 00:49:53","c33429291dc7a384f95165972fddd116","171.66.13.161","Mozilla/5.0 (Macintosh; Intel Mac OS X 10_15_7) AppleWebKit/605.1.15 (KHTML, like Gecko) Version/17.2.1 Safari/605.1.15","Macintosh","Safari","17.2.1","OS X","10_15_7","null","en-US,en;q=0.9","","","","","img/blue.png","f","","","","","","","","","","","","","","","response","f","true",""
"","null","html-keyboard-response","142","277078","0.0-7.0-31.1","4","1","2024-03-20 00:49:53","c33429291dc7a384f95165972fddd116","171.66.13.161","Mozilla/5.0 (Macintosh; Intel Mac OS X 10_15_7) AppleWebKit/605.1.15 (KHTML, like Gecko) Version/17.2.1 Safari/605.1.15","Macintosh","Safari","17.2.1","OS X","10_15_7","null","en-US,en;q=0.9","","","","","<div style=""font-size:60px;"">+</div>","null","","","","","","","","","","","","","","","fixation","","","1143"
"","null","image-keyboard-response","143","279088","0.0-7.0-32.1","4","1","2024-03-20 00:49:53","c33429291dc7a384f95165972fddd116","171.66.13.161","Mozilla/5.0 (Macintosh; Intel Mac OS X 10_15_7) AppleWebKit/605.1.15 (KHTML, like Gecko) Version/17.2.1 Safari/605.1.15","Macintosh","Safari","17.2.1","OS X","10_15_7","null","en-US,en;q=0.9","","","","","img/orange.png","null","","","","","","","","","","","","","","","response","null","true",""
"","null","html-keyboard-response","144","280375","0.0-7.0-33.1","4","1","2024-03-20 00:49:53","c33429291dc7a384f95165972fddd116","171.66.13.161","Mozilla/5.0 (Macintosh; Intel Mac OS X 10_15_7) AppleWebKit/605.1.15 (KHTML, like Gecko) Version/17.2.1 Safari/605.1.15","Macintosh","Safari","17.2.1","OS X","10_15_7","null","en-US,en;q=0.9","","","","","<div style=""font-size:60px;"">+</div>","null","","","","","","","","","","","","","","","fixation","","","1279"
"","271","image-keyboard-response","145","280654","0.0-7.0-34.1","4","1","2024-03-20 00:49:53","c33429291dc7a384f95165972fddd116","171.66.13.161","Mozilla/5.0 (Macintosh; Intel Mac OS X 10_15_7) AppleWebKit/605.1.15 (KHTML, like Gecko) Version/17.2.1 Safari/605.1.15","Macintosh","Safari","17.2.1","OS X","10_15_7","null","en-US,en;q=0.9","","","","","img/blue.png","f","","","","","","","","","","","","","","","response","f","true",""
"","null","html-keyboard-response","146","281841","0.0-7.0-35.1","4","1","2024-03-20 00:49:53","c33429291dc7a384f95165972fddd116","171.66.13.161","Mozilla/5.0 (Macintosh; Intel Mac OS X 10_15_7) AppleWebKit/605.1.15 (KHTML, like Gecko) Version/17.2.1 Safari/605.1.15","Macintosh","Safari","17.2.1","OS X","10_15_7","null","en-US,en;q=0.9","","","","","<div style=""font-size:60px;"">+</div>","null","","","","","","","","","","","","","","","fixation","","","1181"
"","259","image-keyboard-response","147","282106","0.0-7.0-36.1","4","1","2024-03-20 00:49:53","c33429291dc7a384f95165972fddd116","171.66.13.161","Mozilla/5.0 (Macintosh; Intel Mac OS X 10_15_7) AppleWebKit/605.1.15 (KHTML, like Gecko) Version/17.2.1 Safari/605.1.15","Macintosh","Safari","17.2.1","OS X","10_15_7","null","en-US,en;q=0.9","","","","","img/blue.png","f","","","","","","","","","","","","","","","response","f","true",""
"","null","html-keyboard-response","148","283420","0.0-7.0-37.1","4","1","2024-03-20 00:49:53","c33429291dc7a384f95165972fddd116","171.66.13.161","Mozilla/5.0 (Macintosh; Intel Mac OS X 10_15_7) AppleWebKit/605.1.15 (KHTML, like Gecko) Version/17.2.1 Safari/605.1.15","Macintosh","Safari","17.2.1","OS X","10_15_7","null","en-US,en;q=0.9","","","","","<div style=""font-size:60px;"">+</div>","null","","","","","","","","","","","","","","","fixation","","","1308"
"","347","image-keyboard-response","149","283773","0.0-7.0-38.1","4","1","2024-03-20 00:49:53","c33429291dc7a384f95165972fddd116","171.66.13.161","Mozilla/5.0 (Macintosh; Intel Mac OS X 10_15_7) AppleWebKit/605.1.15 (KHTML, like Gecko) Version/17.2.1 Safari/605.1.15","Macintosh","Safari","17.2.1","OS X","10_15_7","null","en-US,en;q=0.9","","","","","img/blue.png","f","","","","","","","","","","","","","","","response","f","true",""
"","null","html-keyboard-response","150","284993","0.0-7.0-39.1","4","1","2024-03-20 00:49:53","c33429291dc7a384f95165972fddd116","171.66.13.161","Mozilla/5.0 (Macintosh; Intel Mac OS X 10_15_7) AppleWebKit/605.1.15 (KHTML, like Gecko) Version/17.2.1 Safari/605.1.15","Macintosh","Safari","17.2.1","OS X","10_15_7","null","en-US,en;q=0.9","","","","","<div style=""font-size:60px;"">+</div>","null","","","","","","","","","","","","","","","fixation","","","1214"
"","312","image-keyboard-response","151","285314","0.0-7.0-40.1","4","1","2024-03-20 00:49:53","c33429291dc7a384f95165972fddd116","171.66.13.161","Mozilla/5.0 (Macintosh; Intel Mac OS X 10_15_7) AppleWebKit/605.1.15 (KHTML, like Gecko) Version/17.2.1 Safari/605.1.15","Macintosh","Safari","17.2.1","OS X","10_15_7","null","en-US,en;q=0.9","","","","","img/blue.png","f","","","","","","","","","","","","","","","response","f","true",""
"","null","html-keyboard-response","152","286329","0.0-7.0-41.1","4","1","2024-03-20 00:49:53","c33429291dc7a384f95165972fddd116","171.66.13.161","Mozilla/5.0 (Macintosh; Intel Mac OS X 10_15_7) AppleWebKit/605.1.15 (KHTML, like Gecko) Version/17.2.1 Safari/605.1.15","Macintosh","Safari","17.2.1","OS X","10_15_7","null","en-US,en;q=0.9","","","","","<div style=""font-size:60px;"">+</div>","null","","","","","","","","","","","","","","","fixation","","","1009"
"","351","image-keyboard-response","153","286687","0.0-7.0-42.1","4","1","2024-03-20 00:49:53","c33429291dc7a384f95165972fddd116","171.66.13.161","Mozilla/5.0 (Macintosh; Intel Mac OS X 10_15_7) AppleWebKit/605.1.15 (KHTML, like Gecko) Version/17.2.1 Safari/605.1.15","Macintosh","Safari","17.2.1","OS X","10_15_7","null","en-US,en;q=0.9","","","","","img/blue.png","f","","","","","","","","","","","","","","","response","f","true",""
"","null","html-keyboard-response","154","287638","0.0-7.0-43.1","4","1","2024-03-20 00:49:53","c33429291dc7a384f95165972fddd116","171.66.13.161","Mozilla/5.0 (Macintosh; Intel Mac OS X 10_15_7) AppleWebKit/605.1.15 (KHTML, like Gecko) Version/17.2.1 Safari/605.1.15","Macintosh","Safari","17.2.1","OS X","10_15_7","null","en-US,en;q=0.9","","","","","<div style=""font-size:60px;"">+</div>","null","","","","","","","","","","","","","","","fixation","","","946"
"","393","image-keyboard-response","155","288037","0.0-7.0-44.1","4","1","2024-03-20 00:49:53","c33429291dc7a384f95165972fddd116","171.66.13.161","Mozilla/5.0 (Macintosh; Intel Mac OS X 10_15_7) AppleWebKit/605.1.15 (KHTML, like Gecko) Version/17.2.1 Safari/605.1.15","Macintosh","Safari","17.2.1","OS X","10_15_7","null","en-US,en;q=0.9","","","","","img/blue.png","f","","","","","","","","","","","","","","","response","f","true",""
"","null","html-keyboard-response","156","288985","0.0-7.0-45.1","4","1","2024-03-20 00:49:53","c33429291dc7a384f95165972fddd116","171.66.13.161","Mozilla/5.0 (Macintosh; Intel Mac OS X 10_15_7) AppleWebKit/605.1.15 (KHTML, like Gecko) Version/17.2.1 Safari/605.1.15","Macintosh","Safari","17.2.1","OS X","10_15_7","null","en-US,en;q=0.9","","","","","<div style=""font-size:60px;"">+</div>","null","","","","","","","","","","","","","","","fixation","","","942"
"","392","image-keyboard-response","157","289386","0.0-7.0-46.1","4","1","2024-03-20 00:49:53","c33429291dc7a384f95165972fddd116","171.66.13.161","Mozilla/5.0 (Macintosh; Intel Mac OS X 10_15_7) AppleWebKit/605.1.15 (KHTML, like Gecko) Version/17.2.1 Safari/605.1.15","Macintosh","Safari","17.2.1","OS X","10_15_7","null","en-US,en;q=0.9","","","","","img/blue.png","f","","","","","","","","","","","","","","","response","f","true",""
"","null","html-keyboard-response","158","290363","0.0-7.0-47.1","4","1","2024-03-20 00:49:53","c33429291dc7a384f95165972fddd116","171.66.13.161","Mozilla/5.0 (Macintosh; Intel Mac OS X 10_15_7) AppleWebKit/605.1.15 (KHTML, like Gecko) Version/17.2.1 Safari/605.1.15","Macintosh","Safari","17.2.1","OS X","10_15_7","null","en-US,en;q=0.9","","","","","<div style=""font-size:60px;"">+</div>","null","","","","","","","","","","","","","","","fixation","","","970"
"","538","image-keyboard-response","159","290907","0.0-7.0-48.1","4","1","2024-03-20 00:49:53","c33429291dc7a384f95165972fddd116","171.66.13.161","Mozilla/5.0 (Macintosh; Intel Mac OS X 10_15_7) AppleWebKit/605.1.15 (KHTML, like Gecko) Version/17.2.1 Safari/605.1.15","Macintosh","Safari","17.2.1","OS X","10_15_7","null","en-US,en;q=0.9","","","","","img/blue.png","f","","","","","","","","","","","","","","","response","f","true",""
"","null","html-keyboard-response","160","291996","0.0-7.0-49.1","4","1","2024-03-20 00:49:53","c33429291dc7a384f95165972fddd116","171.66.13.161","Mozilla/5.0 (Macintosh; Intel Mac OS X 10_15_7) AppleWebKit/605.1.15 (KHTML, like Gecko) Version/17.2.1 Safari/605.1.15","Macintosh","Safari","17.2.1","OS X","10_15_7","null","en-US,en;q=0.9","","","","","<div style=""font-size:60px;"">+</div>","null","","","","","","","","","","","","","","","fixation","","","1083"
"","285","image-keyboard-response","161","292288","0.0-7.0-50.1","4","1","2024-03-20 00:49:53","c33429291dc7a384f95165972fddd116","171.66.13.161","Mozilla/5.0 (Macintosh; Intel Mac OS X 10_15_7) AppleWebKit/605.1.15 (KHTML, like Gecko) Version/17.2.1 Safari/605.1.15","Macintosh","Safari","17.2.1","OS X","10_15_7","null","en-US,en;q=0.9","","","","","img/blue.png","f","","","","","","","","","","","","","","","response","f","true",""
"","null","html-keyboard-response","162","293265","0.0-7.0-51.1","4","1","2024-03-20 00:49:53","c33429291dc7a384f95165972fddd116","171.66.13.161","Mozilla/5.0 (Macintosh; Intel Mac OS X 10_15_7) AppleWebKit/605.1.15 (KHTML, like Gecko) Version/17.2.1 Safari/605.1.15","Macintosh","Safari","17.2.1","OS X","10_15_7","null","en-US,en;q=0.9","","","","","<div style=""font-size:60px;"">+</div>","null","","","","","","","","","","","","","","","fixation","","","971"
"","256","image-keyboard-response","163","293529","0.0-7.0-52.1","4","1","2024-03-20 00:49:53","c33429291dc7a384f95165972fddd116","171.66.13.161","Mozilla/5.0 (Macintosh; Intel Mac OS X 10_15_7) AppleWebKit/605.1.15 (KHTML, like Gecko) Version/17.2.1 Safari/605.1.15","Macintosh","Safari","17.2.1","OS X","10_15_7","null","en-US,en;q=0.9","","","","","img/blue.png","f","","","","","","","","","","","","","","","response","f","true",""
"","null","html-keyboard-response","164","294602","0.0-7.0-53.1","4","1","2024-03-20 00:49:53","c33429291dc7a384f95165972fddd116","171.66.13.161","Mozilla/5.0 (Macintosh; Intel Mac OS X 10_15_7) AppleWebKit/605.1.15 (KHTML, like Gecko) Version/17.2.1 Safari/605.1.15","Macintosh","Safari","17.2.1","OS X","10_15_7","null","en-US,en;q=0.9","","","","","<div style=""font-size:60px;"">+</div>","null","","","","","","","","","","","","","","","fixation","","","1066"
"","246","image-keyboard-response","165","294854","0.0-7.0-54.1","4","1","2024-03-20 00:49:53","c33429291dc7a384f95165972fddd116","171.66.13.161","Mozilla/5.0 (Macintosh; Intel Mac OS X 10_15_7) AppleWebKit/605.1.15 (KHTML, like Gecko) Version/17.2.1 Safari/605.1.15","Macintosh","Safari","17.2.1","OS X","10_15_7","null","en-US,en;q=0.9","","","","","img/blue.png","f","","","","","","","","","","","","","","","response","f","true",""
"","null","html-keyboard-response","166","295773","0.0-7.0-55.1","4","1","2024-03-20 00:49:53","c33429291dc7a384f95165972fddd116","171.66.13.161","Mozilla/5.0 (Macintosh; Intel Mac OS X 10_15_7) AppleWebKit/605.1.15 (KHTML, like Gecko) Version/17.2.1 Safari/605.1.15","Macintosh","Safari","17.2.1","OS X","10_15_7","null","en-US,en;q=0.9","","","","","<div style=""font-size:60px;"">+</div>","null","","","","","","","","","","","","","","","fixation","","","914"
"","284","image-keyboard-response","167","296062","0.0-7.0-56.1","4","1","2024-03-20 00:49:53","c33429291dc7a384f95165972fddd116","171.66.13.161","Mozilla/5.0 (Macintosh; Intel Mac OS X 10_15_7) AppleWebKit/605.1.15 (KHTML, like Gecko) Version/17.2.1 Safari/605.1.15","Macintosh","Safari","17.2.1","OS X","10_15_7","null","en-US,en;q=0.9","","","","","img/orange.png","f","","","","","","","","","","","","","","","response","null","false",""
"","null","html-keyboard-response","168","297020","0.0-7.0-57.1","4","1","2024-03-20 00:49:53","c33429291dc7a384f95165972fddd116","171.66.13.161","Mozilla/5.0 (Macintosh; Intel Mac OS X 10_15_7) AppleWebKit/605.1.15 (KHTML, like Gecko) Version/17.2.1 Safari/605.1.15","Macintosh","Safari","17.2.1","OS X","10_15_7","null","en-US,en;q=0.9","","","","","<div style=""font-size:60px;"">+</div>","null","","","","","","","","","","","","","","","fixation","","","950"
"","null","image-keyboard-response","169","298029","0.0-7.0-58.1","4","1","2024-03-20 00:49:53","c33429291dc7a384f95165972fddd116","171.66.13.161","Mozilla/5.0 (Macintosh; Intel Mac OS X 10_15_7) AppleWebKit/605.1.15 (KHTML, like Gecko) Version/17.2.1 Safari/605.1.15","Macintosh","Safari","17.2.1","OS X","10_15_7","null","en-US,en;q=0.9","","","","","img/orange.png","null","","","","","","","","","","","","","","","response","null","true",""
"","null","html-keyboard-response","170","298936","0.0-7.0-59.1","4","1","2024-03-20 00:49:53","c33429291dc7a384f95165972fddd116","171.66.13.161","Mozilla/5.0 (Macintosh; Intel Mac OS X 10_15_7) AppleWebKit/605.1.15 (KHTML, like Gecko) Version/17.2.1 Safari/605.1.15","Macintosh","Safari","17.2.1","OS X","10_15_7","null","en-US,en;q=0.9","","","","","<div style=""font-size:60px;"">+</div>","null","","","","","","","","","","","","","","","fixation","","","899"
"","4899","html-keyboard-response","171","303844","0.0-8.0","4","1","2024-03-20 00:49:53","c33429291dc7a384f95165972fddd116","171.66.13.161","Mozilla/5.0 (Macintosh; Intel Mac OS X 10_15_7) AppleWebKit/605.1.15 (KHTML, like Gecko) Version/17.2.1 Safari/605.1.15","Macintosh","Safari","17.2.1","OS X","10_15_7","null","en-US,en;q=0.9","","","","","<p>You responded correctly on 98% of the trials.</p>
        <p>Your average response time was 284ms.</p>
        <p>Press any key to complete the experiment. Thank you!</p>"," ","","","","","","","","","","","","","","","","","",""
"","2133","html-keyboard-response","172","305981","0.0-9.0","4","1","2024-03-20 00:49:53","c33429291dc7a384f95165972fddd116","171.66.13.161","Mozilla/5.0 (Macintosh; Intel Mac OS X 10_15_7) AppleWebKit/605.1.15 (KHTML, like Gecko) Version/17.2.1 Safari/605.1.15","Macintosh","Safari","17.2.1","OS X","10_15_7","null","en-US,en;q=0.9","","","","","<p>Great work! This experiment is over now. Please press any button.</p>"," ","","","","","","","","","","","","","","","","","",""
