"view_history","rt","trial_type","trial_index","time_elapsed","internal_node_id","run_id","condition","recorded_at","source_code_version","ip","user_agent","device","browser","browser_version","platform","platform_version","referer","accept_language","min_width","min_height","inner_width","inner_height","stimulus","response","sequence","sequence_length","tile_duration","backwards","responses","score_an","score_pc","score_ls","event_history","success","timeout","failed_images","failed_audio","failed_video","task","correct_response","correct","fixation_time"
"[{""page_index"":0,""viewing_time"":2612}]","2612","instructions","0","2613","0.0-0.0","1","1","2024-03-17 22:53:12","c33429291dc7a384f95165972fddd116","171.66.13.59","Mozilla/5.0 (Macintosh; Intel Mac OS X 10_15_7) AppleWebKit/537.36 (KHTML, like Gecko) Chrome/121.0.0.0 Safari/537.36","Macintosh","Chrome","121.0.0.0","OS X","10_15_7","null","en-US,en;q=0.9","","","","","","","","","","","","","","","","","","","","","","","",""
"[{""page_index"":0,""viewing_time"":1398},{""page_index"":1,""viewing_time"":42735},{""page_index"":2,""viewing_time"":3540}]","47673","instructions","1","50286","0.0-1.0","1","1","2024-03-17 22:53:12","c33429291dc7a384f95165972fddd116","171.66.13.59","Mozilla/5.0 (Macintosh; Intel Mac OS X 10_15_7) AppleWebKit/537.36 (KHTML, like Gecko) Chrome/121.0.0.0 Safari/537.36","Macintosh","Chrome","121.0.0.0","OS X","10_15_7","null","en-US,en;q=0.9","","","","","","","","","","","","","","","","","","","","","","","",""
"","","screen-check","2","50289","0.0-2.0-0.0","1","1","2024-03-17 22:53:12","c33429291dc7a384f95165972fddd116","171.66.13.59","Mozilla/5.0 (Macintosh; Intel Mac OS X 10_15_7) AppleWebKit/537.36 (KHTML, like Gecko) Chrome/121.0.0.0 Safari/537.36","Macintosh","Chrome","121.0.0.0","OS X","10_15_7","null","en-US,en;q=0.9","258","364","1512","945","","","","","","","","","","","","","","","","","","","",""
"","null","html-keyboard-response","3","50792","0.0-2.0-1.0","1","1","2024-03-17 22:53:12","c33429291dc7a384f95165972fddd116","171.66.13.59","Mozilla/5.0 (Macintosh; Intel Mac OS X 10_15_7) AppleWebKit/537.36 (KHTML, like Gecko) Chrome/121.0.0.0 Safari/537.36","Macintosh","Chrome","121.0.0.0","OS X","10_15_7","null","en-US,en;q=0.9","","","","","<p style=""font-size: 48px;"">+</p>","null","","","","","","","","","","","","","","","","","",""
"","3437.100000023842","spatial-recall","4","58607","0.0-2.0-2.0","1","1","2024-03-17 22:53:12","c33429291dc7a384f95165972fddd116","171.66.13.59","Mozilla/5.0 (Macintosh; Intel Mac OS X 10_15_7) AppleWebKit/537.36 (KHTML, like Gecko) Chrome/121.0.0.0 Safari/537.36","Macintosh","Chrome","121.0.0.0","OS X","10_15_7","null","en-US,en;q=0.9","","","","","","","[4,8,13,6]","4","717","false","[4,8,13,6]","1","4","4","[{""button"":4,""time"":943.7000000476837},{""button"":8,""time"":1355.6000000238419},{""button"":13,""time"":1962.7000000476837},{""button"":6,""time"":2621},{""button"":""submit"",""time"":3437.100000023842}]","","","","","","","","",""
"","","screen-check","5","58609","0.0-2.0-0.1","1","1","2024-03-17 22:53:12","c33429291dc7a384f95165972fddd116","171.66.13.59","Mozilla/5.0 (Macintosh; Intel Mac OS X 10_15_7) AppleWebKit/537.36 (KHTML, like Gecko) Chrome/121.0.0.0 Safari/537.36","Macintosh","Chrome","121.0.0.0","OS X","10_15_7","null","en-US,en;q=0.9","258","364","1512","945","","","","","","","","","","","","","","","","","","","",""
"","null","html-keyboard-response","6","59112","0.0-2.0-1.1","1","1","2024-03-17 22:53:12","c33429291dc7a384f95165972fddd116","171.66.13.59","Mozilla/5.0 (Macintosh; Intel Mac OS X 10_15_7) AppleWebKit/537.36 (KHTML, like Gecko) Chrome/121.0.0.0 Safari/537.36","Macintosh","Chrome","121.0.0.0","OS X","10_15_7","null","en-US,en;q=0.9","","","","","<p style=""font-size: 48px;"">+</p>","null","","","","","","","","","","","","","","","","","",""
"","2949.2000000476837","spatial-recall","7","66422","0.0-2.0-2.1","1","1","2024-03-17 22:53:12","c33429291dc7a384f95165972fddd116","171.66.13.59","Mozilla/5.0 (Macintosh; Intel Mac OS X 10_15_7) AppleWebKit/537.36 (KHTML, like Gecko) Chrome/121.0.0.0 Safari/537.36","Macintosh","Chrome","121.0.0.0","OS X","10_15_7","null","en-US,en;q=0.9","","","","","","","[10,13,14,11]","4","714","false","[10,13,14,11]","1","4","4","[{""button"":10,""time"":615.6000000238419},{""button"":13,""time"":1174.5},{""button"":14,""time"":1644.7000000476837},{""button"":11,""time"":2138.2000000476837},{""button"":""submit"",""time"":2949.2000000476837}]","","","","","","","","",""
"","","screen-check","8","66425","0.0-2.0-0.2","1","1","2024-03-17 22:53:12","c33429291dc7a384f95165972fddd116","171.66.13.59","Mozilla/5.0 (Macintosh; Intel Mac OS X 10_15_7) AppleWebKit/537.36 (KHTML, like Gecko) Chrome/121.0.0.0 Safari/537.36","Macintosh","Chrome","121.0.0.0","OS X","10_15_7","null","en-US,en;q=0.9","258","364","1512","945","","","","","","","","","","","","","","","","","","","",""
"","null","html-keyboard-response","9","66927","0.0-2.0-1.2","1","1","2024-03-17 22:53:12","c33429291dc7a384f95165972fddd116","171.66.13.59","Mozilla/5.0 (Macintosh; Intel Mac OS X 10_15_7) AppleWebKit/537.36 (KHTML, like Gecko) Chrome/121.0.0.0 Safari/537.36","Macintosh","Chrome","121.0.0.0","OS X","10_15_7","null","en-US,en;q=0.9","","","","","<p style=""font-size: 48px;"">+</p>","null","","","","","","","","","","","","","","","","","",""
"","3024.600000023842","spatial-recall","10","74414","0.0-2.0-2.2","1","1","2024-03-17 22:53:12","c33429291dc7a384f95165972fddd116","171.66.13.59","Mozilla/5.0 (Macintosh; Intel Mac OS X 10_15_7) AppleWebKit/537.36 (KHTML, like Gecko) Chrome/121.0.0.0 Safari/537.36","Macintosh","Chrome","121.0.0.0","OS X","10_15_7","null","en-US,en;q=0.9","","","","","","","[1,4,13,6]","4","739","false","[1,4,13,6]","1","4","4","[{""button"":1,""time"":853.8999999761581},{""button"":4,""time"":1324.5},{""button"":13,""time"":1898.6000000238419},{""button"":6,""time"":2376.2000000476837},{""button"":""submit"",""time"":3024.600000023842}]","","","","","","","","",""
"","","screen-check","11","74416","0.0-2.0-0.3","1","1","2024-03-17 22:53:12","c33429291dc7a384f95165972fddd116","171.66.13.59","Mozilla/5.0 (Macintosh; Intel Mac OS X 10_15_7) AppleWebKit/537.36 (KHTML, like Gecko) Chrome/121.0.0.0 Safari/537.36","Macintosh","Chrome","121.0.0.0","OS X","10_15_7","null","en-US,en;q=0.9","258","364","1512","945","","","","","","","","","","","","","","","","","","","",""
"","null","html-keyboard-response","12","74918","0.0-2.0-1.3","1","1","2024-03-17 22:53:12","c33429291dc7a384f95165972fddd116","171.66.13.59","Mozilla/5.0 (Macintosh; Intel Mac OS X 10_15_7) AppleWebKit/537.36 (KHTML, like Gecko) Chrome/121.0.0.0 Safari/537.36","Macintosh","Chrome","121.0.0.0","OS X","10_15_7","null","en-US,en;q=0.9","","","","","<p style=""font-size: 48px;"">+</p>","null","","","","","","","","","","","","","","","","","",""
"","3303","spatial-recall","13","82699","0.0-2.0-2.3","1","1","2024-03-17 22:53:12","c33429291dc7a384f95165972fddd116","171.66.13.59","Mozilla/5.0 (Macintosh; Intel Mac OS X 10_15_7) AppleWebKit/537.36 (KHTML, like Gecko) Chrome/121.0.0.0 Safari/537.36","Macintosh","Chrome","121.0.0.0","OS X","10_15_7","null","en-US,en;q=0.9","","","","","","","[4,10,6,11]","4","744","false","[4,10,6,11]","1","4","4","[{""button"":4,""time"":648.6000000238419},{""button"":10,""time"":1441.6000000238419},{""button"":6,""time"":2000.4000000953674},{""button"":11,""time"":2465.3000000715256},{""button"":""submit"",""time"":3303}]","","","","","","","","",""
"","","screen-check","14","82700","0.0-2.0-0.4","1","1","2024-03-17 22:53:12","c33429291dc7a384f95165972fddd116","171.66.13.59","Mozilla/5.0 (Macintosh; Intel Mac OS X 10_15_7) AppleWebKit/537.36 (KHTML, like Gecko) Chrome/121.0.0.0 Safari/537.36","Macintosh","Chrome","121.0.0.0","OS X","10_15_7","null","en-US,en;q=0.9","258","364","1512","945","","","","","","","","","","","","","","","","","","","",""
"","null","html-keyboard-response","15","83201","0.0-2.0-1.4","1","1","2024-03-17 22:53:12","c33429291dc7a384f95165972fddd116","171.66.13.59","Mozilla/5.0 (Macintosh; Intel Mac OS X 10_15_7) AppleWebKit/537.36 (KHTML, like Gecko) Chrome/121.0.0.0 Safari/537.36","Macintosh","Chrome","121.0.0.0","OS X","10_15_7","null","en-US,en;q=0.9","","","","","<p style=""font-size: 48px;"">+</p>","null","","","","","","","","","","","","","","","","","",""
"","3004.7000000476837","spatial-recall","16","90664","0.0-2.0-2.4","1","1","2024-03-17 22:53:12","c33429291dc7a384f95165972fddd116","171.66.13.59","Mozilla/5.0 (Macintosh; Intel Mac OS X 10_15_7) AppleWebKit/537.36 (KHTML, like Gecko) Chrome/121.0.0.0 Safari/537.36","Macintosh","Chrome","121.0.0.0","OS X","10_15_7","null","en-US,en;q=0.9","","","","","","","[5,3,10,15]","4","739","false","[5,3,10,15]","1","4","4","[{""button"":5,""time"":742.6000000238419},{""button"":3,""time"":1357.6000000238419},{""button"":10,""time"":1908.7000000476837},{""button"":15,""time"":2507.2000000476837},{""button"":""submit"",""time"":3004.7000000476837}]","","","","","","","","",""
"","","screen-check","17","90668","0.0-2.0-0.5","1","1","2024-03-17 22:53:12","c33429291dc7a384f95165972fddd116","171.66.13.59","Mozilla/5.0 (Macintosh; Intel Mac OS X 10_15_7) AppleWebKit/537.36 (KHTML, like Gecko) Chrome/121.0.0.0 Safari/537.36","Macintosh","Chrome","121.0.0.0","OS X","10_15_7","null","en-US,en;q=0.9","258","364","1512","945","","","","","","","","","","","","","","","","","","","",""
"","null","html-keyboard-response","18","91170","0.0-2.0-1.5","1","1","2024-03-17 22:53:12","c33429291dc7a384f95165972fddd116","171.66.13.59","Mozilla/5.0 (Macintosh; Intel Mac OS X 10_15_7) AppleWebKit/537.36 (KHTML, like Gecko) Chrome/121.0.0.0 Safari/537.36","Macintosh","Chrome","121.0.0.0","OS X","10_15_7","null","en-US,en;q=0.9","","","","","<p style=""font-size: 48px;"">+</p>","null","","","","","","","","","","","","","","","","","",""
"","2553.399999976158","spatial-recall","19","97764","0.0-2.0-2.5","1","1","2024-03-17 22:53:12","c33429291dc7a384f95165972fddd116","171.66.13.59","Mozilla/5.0 (Macintosh; Intel Mac OS X 10_15_7) AppleWebKit/537.36 (KHTML, like Gecko) Chrome/121.0.0.0 Safari/537.36","Macintosh","Chrome","121.0.0.0","OS X","10_15_7","null","en-US,en;q=0.9","","","","","","","[2,10,0,8]","4","634","false","[2,10,0,8]","1","4","4","[{""button"":2,""time"":538.5},{""button"":10,""time"":939.7999999523163},{""button"":0,""time"":1484.2000000476837},{""button"":8,""time"":1921.8999999761581},{""button"":""submit"",""time"":2553.399999976158}]","","","","","","","","",""
"","","screen-check","20","97766","0.0-2.0-0.6","1","1","2024-03-17 22:53:12","c33429291dc7a384f95165972fddd116","171.66.13.59","Mozilla/5.0 (Macintosh; Intel Mac OS X 10_15_7) AppleWebKit/537.36 (KHTML, like Gecko) Chrome/121.0.0.0 Safari/537.36","Macintosh","Chrome","121.0.0.0","OS X","10_15_7","null","en-US,en;q=0.9","258","364","1512","945","","","","","","","","","","","","","","","","","","","",""
"","null","html-keyboard-response","21","98268","0.0-2.0-1.6","1","1","2024-03-17 22:53:12","c33429291dc7a384f95165972fddd116","171.66.13.59","Mozilla/5.0 (Macintosh; Intel Mac OS X 10_15_7) AppleWebKit/537.36 (KHTML, like Gecko) Chrome/121.0.0.0 Safari/537.36","Macintosh","Chrome","121.0.0.0","OS X","10_15_7","null","en-US,en;q=0.9","","","","","<p style=""font-size: 48px;"">+</p>","null","","","","","","","","","","","","","","","","","",""
"","2800.1999999284744","spatial-recall","22","105312","0.0-2.0-2.6","1","1","2024-03-17 22:53:12","c33429291dc7a384f95165972fddd116","171.66.13.59","Mozilla/5.0 (Macintosh; Intel Mac OS X 10_15_7) AppleWebKit/537.36 (KHTML, like Gecko) Chrome/121.0.0.0 Safari/537.36","Macintosh","Chrome","121.0.0.0","OS X","10_15_7","null","en-US,en;q=0.9","","","","","","","[5,11,1,6]","4","685","false","[5,11,1,6]","1","4","4","[{""button"":5,""time"":597.5},{""button"":11,""time"":1148.5},{""button"":1,""time"":1723.7999999523163},{""button"":6,""time"":2179.1999999284744},{""button"":""submit"",""time"":2800.1999999284744}]","","","","","","","","",""
"","","screen-check","23","105314","0.0-2.0-0.7","1","1","2024-03-17 22:53:12","c33429291dc7a384f95165972fddd116","171.66.13.59","Mozilla/5.0 (Macintosh; Intel Mac OS X 10_15_7) AppleWebKit/537.36 (KHTML, like Gecko) Chrome/121.0.0.0 Safari/537.36","Macintosh","Chrome","121.0.0.0","OS X","10_15_7","null","en-US,en;q=0.9","258","364","1512","945","","","","","","","","","","","","","","","","","","","",""
"","null","html-keyboard-response","24","105817","0.0-2.0-1.7","1","1","2024-03-17 22:53:12","c33429291dc7a384f95165972fddd116","171.66.13.59","Mozilla/5.0 (Macintosh; Intel Mac OS X 10_15_7) AppleWebKit/537.36 (KHTML, like Gecko) Chrome/121.0.0.0 Safari/537.36","Macintosh","Chrome","121.0.0.0","OS X","10_15_7","null","en-US,en;q=0.9","","","","","<p style=""font-size: 48px;"">+</p>","null","","","","","","","","","","","","","","","","","",""
"","2675.3000000715256","spatial-recall","25","112701","0.0-2.0-2.7","1","1","2024-03-17 22:53:12","c33429291dc7a384f95165972fddd116","171.66.13.59","Mozilla/5.0 (Macintosh; Intel Mac OS X 10_15_7) AppleWebKit/537.36 (KHTML, like Gecko) Chrome/121.0.0.0 Safari/537.36","Macintosh","Chrome","121.0.0.0","OS X","10_15_7","null","en-US,en;q=0.9","","","","","","","[15,9,10,2]","4","677","false","[15,9,10,2]","1","4","4","[{""button"":15,""time"":456.60000002384186},{""button"":9,""time"":1015.1000000238419},{""button"":10,""time"":1407},{""button"":2,""time"":1924.7000000476837},{""button"":""submit"",""time"":2675.3000000715256}]","","","","","","","","",""
"","","screen-check","26","112704","0.0-2.0-0.8","1","1","2024-03-17 22:53:12","c33429291dc7a384f95165972fddd116","171.66.13.59","Mozilla/5.0 (Macintosh; Intel Mac OS X 10_15_7) AppleWebKit/537.36 (KHTML, like Gecko) Chrome/121.0.0.0 Safari/537.36","Macintosh","Chrome","121.0.0.0","OS X","10_15_7","null","en-US,en;q=0.9","258","364","1512","945","","","","","","","","","","","","","","","","","","","",""
"","null","html-keyboard-response","27","113206","0.0-2.0-1.8","1","1","2024-03-17 22:53:12","c33429291dc7a384f95165972fddd116","171.66.13.59","Mozilla/5.0 (Macintosh; Intel Mac OS X 10_15_7) AppleWebKit/537.36 (KHTML, like Gecko) Chrome/121.0.0.0 Safari/537.36","Macintosh","Chrome","121.0.0.0","OS X","10_15_7","null","en-US,en;q=0.9","","","","","<p style=""font-size: 48px;"">+</p>","null","","","","","","","","","","","","","","","","","",""
"","2911.399999976158","spatial-recall","28","120315","0.0-2.0-2.8","1","1","2024-03-17 22:53:12","c33429291dc7a384f95165972fddd116","171.66.13.59","Mozilla/5.0 (Macintosh; Intel Mac OS X 10_15_7) AppleWebKit/537.36 (KHTML, like Gecko) Chrome/121.0.0.0 Safari/537.36","Macintosh","Chrome","121.0.0.0","OS X","10_15_7","null","en-US,en;q=0.9","","","","","","","[9,13,0,2]","4","674","false","[9,13,0,2]","1","4","4","[{""button"":9,""time"":774.1000000238419},{""button"":13,""time"":1158.7999999523163},{""button"":0,""time"":1746.1999999284744},{""button"":2,""time"":2217.399999976158},{""button"":""submit"",""time"":2911.399999976158}]","","","","","","","","",""
"","","screen-check","29","120317","0.0-2.0-0.9","1","1","2024-03-17 22:53:12","c33429291dc7a384f95165972fddd116","171.66.13.59","Mozilla/5.0 (Macintosh; Intel Mac OS X 10_15_7) AppleWebKit/537.36 (KHTML, like Gecko) Chrome/121.0.0.0 Safari/537.36","Macintosh","Chrome","121.0.0.0","OS X","10_15_7","null","en-US,en;q=0.9","258","364","1512","945","","","","","","","","","","","","","","","","","","","",""
"","null","html-keyboard-response","30","120819","0.0-2.0-1.9","1","1","2024-03-17 22:53:12","c33429291dc7a384f95165972fddd116","171.66.13.59","Mozilla/5.0 (Macintosh; Intel Mac OS X 10_15_7) AppleWebKit/537.36 (KHTML, like Gecko) Chrome/121.0.0.0 Safari/537.36","Macintosh","Chrome","121.0.0.0","OS X","10_15_7","null","en-US,en;q=0.9","","","","","<p style=""font-size: 48px;"">+</p>","null","","","","","","","","","","","","","","","","","",""
"","2608.5","spatial-recall","31","127622","0.0-2.0-2.9","1","1","2024-03-17 22:53:12","c33429291dc7a384f95165972fddd116","171.66.13.59","Mozilla/5.0 (Macintosh; Intel Mac OS X 10_15_7) AppleWebKit/537.36 (KHTML, like Gecko) Chrome/121.0.0.0 Safari/537.36","Macintosh","Chrome","121.0.0.0","OS X","10_15_7","null","en-US,en;q=0.9","","","","","","","[7,14,15,13]","4","673","false","[7,14,15,13]","1","4","4","[{""button"":7,""time"":501.89999997615814},{""button"":14,""time"":884},{""button"":15,""time"":1207.6000000238419},{""button"":13,""time"":1661.2999999523163},{""button"":""submit"",""time"":2608.5}]","","","","","","","","",""
"","","screen-check","32","127624","0.0-2.0-0.10","1","1","2024-03-17 22:53:12","c33429291dc7a384f95165972fddd116","171.66.13.59","Mozilla/5.0 (Macintosh; Intel Mac OS X 10_15_7) AppleWebKit/537.36 (KHTML, like Gecko) Chrome/121.0.0.0 Safari/537.36","Macintosh","Chrome","121.0.0.0","OS X","10_15_7","null","en-US,en;q=0.9","258","364","1512","945","","","","","","","","","","","","","","","","","","","",""
"","null","html-keyboard-response","33","128128","0.0-2.0-1.10","1","1","2024-03-17 22:53:12","c33429291dc7a384f95165972fddd116","171.66.13.59","Mozilla/5.0 (Macintosh; Intel Mac OS X 10_15_7) AppleWebKit/537.36 (KHTML, like Gecko) Chrome/121.0.0.0 Safari/537.36","Macintosh","Chrome","121.0.0.0","OS X","10_15_7","null","en-US,en;q=0.9","","","","","<p style=""font-size: 48px;"">+</p>","null","","","","","","","","","","","","","","","","","",""
"","5784.600000023842","spatial-recall","34","137721","0.0-2.0-2.10","1","1","2024-03-17 22:53:12","c33429291dc7a384f95165972fddd116","171.66.13.59","Mozilla/5.0 (Macintosh; Intel Mac OS X 10_15_7) AppleWebKit/537.36 (KHTML, like Gecko) Chrome/121.0.0.0 Safari/537.36","Macintosh","Chrome","121.0.0.0","OS X","10_15_7","null","en-US,en;q=0.9","","","","","","","[11,5,2,10]","4","576","false","[11,5,2,10]","1","4","4","[{""button"":11,""time"":723.3999999761581},{""button"":1,""time"":1241.3999999761581},{""button"":""clear"",""time"":2977.7000000476837},{""button"":11,""time"":3768.5},{""button"":5,""time"":4262.399999976158},{""button"":2,""time"":4699.700000047684},{""button"":10,""time"":5153.800000071526},{""button"":""submit"",""time"":5784.600000023842}]","","","","","","","","",""
"","","screen-check","35","137723","0.0-2.0-0.11","1","1","2024-03-17 22:53:12","c33429291dc7a384f95165972fddd116","171.66.13.59","Mozilla/5.0 (Macintosh; Intel Mac OS X 10_15_7) AppleWebKit/537.36 (KHTML, like Gecko) Chrome/121.0.0.0 Safari/537.36","Macintosh","Chrome","121.0.0.0","OS X","10_15_7","null","en-US,en;q=0.9","258","364","1512","945","","","","","","","","","","","","","","","","","","","",""
"","null","html-keyboard-response","36","138226","0.0-2.0-1.11","1","1","2024-03-17 22:53:12","c33429291dc7a384f95165972fddd116","171.66.13.59","Mozilla/5.0 (Macintosh; Intel Mac OS X 10_15_7) AppleWebKit/537.36 (KHTML, like Gecko) Chrome/121.0.0.0 Safari/537.36","Macintosh","Chrome","121.0.0.0","OS X","10_15_7","null","en-US,en;q=0.9","","","","","<p style=""font-size: 48px;"">+</p>","null","","","","","","","","","","","","","","","","","",""
"","2453.2999999523163","spatial-recall","37","144243","0.0-2.0-2.11","1","1","2024-03-17 22:53:12","c33429291dc7a384f95165972fddd116","171.66.13.59","Mozilla/5.0 (Macintosh; Intel Mac OS X 10_15_7) AppleWebKit/537.36 (KHTML, like Gecko) Chrome/121.0.0.0 Safari/537.36","Macintosh","Chrome","121.0.0.0","OS X","10_15_7","null","en-US,en;q=0.9","","","","","","","[7,3,2,10]","4","515","false","[7,3,2,10]","1","4","4","[{""button"":7,""time"":607.1999999284744},{""button"":3,""time"":963.3999999761581},{""button"":2,""time"":1401.2999999523163},{""button"":10,""time"":1910.3999999761581},{""button"":""submit"",""time"":2453.2999999523163}]","","","","","","","","",""
"","","screen-check","38","144245","0.0-2.0-0.12","1","1","2024-03-17 22:53:12","c33429291dc7a384f95165972fddd116","171.66.13.59","Mozilla/5.0 (Macintosh; Intel Mac OS X 10_15_7) AppleWebKit/537.36 (KHTML, like Gecko) Chrome/121.0.0.0 Safari/537.36","Macintosh","Chrome","121.0.0.0","OS X","10_15_7","null","en-US,en;q=0.9","258","364","1512","945","","","","","","","","","","","","","","","","","","","",""
"","null","html-keyboard-response","39","144746","0.0-2.0-1.12","1","1","2024-03-17 22:53:12","c33429291dc7a384f95165972fddd116","171.66.13.59","Mozilla/5.0 (Macintosh; Intel Mac OS X 10_15_7) AppleWebKit/537.36 (KHTML, like Gecko) Chrome/121.0.0.0 Safari/537.36","Macintosh","Chrome","121.0.0.0","OS X","10_15_7","null","en-US,en;q=0.9","","","","","<p style=""font-size: 48px;"">+</p>","null","","","","","","","","","","","","","","","","","",""
"","2916.100000023842","spatial-recall","40","151236","0.0-2.0-2.12","1","1","2024-03-17 22:53:12","c33429291dc7a384f95165972fddd116","171.66.13.59","Mozilla/5.0 (Macintosh; Intel Mac OS X 10_15_7) AppleWebKit/537.36 (KHTML, like Gecko) Chrome/121.0.0.0 Safari/537.36","Macintosh","Chrome","121.0.0.0","OS X","10_15_7","null","en-US,en;q=0.9","","","","","","","[13,3,10,8]","4","518","false","[13,3,10,8]","1","4","4","[{""button"":13,""time"":925.2000000476837},{""button"":3,""time"":1448.3999999761581},{""button"":10,""time"":1887.7000000476837},{""button"":8,""time"":2364.600000023842},{""button"":""submit"",""time"":2916.100000023842}]","","","","","","","","",""
"","","screen-check","41","151240","0.0-2.0-0.13","1","1","2024-03-17 22:53:12","c33429291dc7a384f95165972fddd116","171.66.13.59","Mozilla/5.0 (Macintosh; Intel Mac OS X 10_15_7) AppleWebKit/537.36 (KHTML, like Gecko) Chrome/121.0.0.0 Safari/537.36","Macintosh","Chrome","121.0.0.0","OS X","10_15_7","null","en-US,en;q=0.9","258","364","1512","945","","","","","","","","","","","","","","","","","","","",""
"","null","html-keyboard-response","42","151741","0.0-2.0-1.13","1","1","2024-03-17 22:53:12","c33429291dc7a384f95165972fddd116","171.66.13.59","Mozilla/5.0 (Macintosh; Intel Mac OS X 10_15_7) AppleWebKit/537.36 (KHTML, like Gecko) Chrome/121.0.0.0 Safari/537.36","Macintosh","Chrome","121.0.0.0","OS X","10_15_7","null","en-US,en;q=0.9","","","","","<p style=""font-size: 48px;"">+</p>","null","","","","","","","","","","","","","","","","","",""
"","3087.6999999284744","spatial-recall","43","158532","0.0-2.0-2.13","1","1","2024-03-17 22:53:12","c33429291dc7a384f95165972fddd116","171.66.13.59","Mozilla/5.0 (Macintosh; Intel Mac OS X 10_15_7) AppleWebKit/537.36 (KHTML, like Gecko) Chrome/121.0.0.0 Safari/537.36","Macintosh","Chrome","121.0.0.0","OS X","10_15_7","null","en-US,en;q=0.9","","","","","","","[0,5,13,6]","4","550","false","[0,5,13,6]","1","4","4","[{""button"":0,""time"":674.7999999523163},{""button"":5,""time"":1099.0999999046326},{""button"":13,""time"":1492.6999999284744},{""button"":6,""time"":1954.0999999046326},{""button"":""submit"",""time"":3087.6999999284744}]","","","","","","","","",""
"","","screen-check","44","158534","0.0-2.0-0.14","1","1","2024-03-17 22:53:12","c33429291dc7a384f95165972fddd116","171.66.13.59","Mozilla/5.0 (Macintosh; Intel Mac OS X 10_15_7) AppleWebKit/537.36 (KHTML, like Gecko) Chrome/121.0.0.0 Safari/537.36","Macintosh","Chrome","121.0.0.0","OS X","10_15_7","null","en-US,en;q=0.9","258","364","1512","945","","","","","","","","","","","","","","","","","","","",""
"","null","html-keyboard-response","45","159037","0.0-2.0-1.14","1","1","2024-03-17 22:53:12","c33429291dc7a384f95165972fddd116","171.66.13.59","Mozilla/5.0 (Macintosh; Intel Mac OS X 10_15_7) AppleWebKit/537.36 (KHTML, like Gecko) Chrome/121.0.0.0 Safari/537.36","Macintosh","Chrome","121.0.0.0","OS X","10_15_7","null","en-US,en;q=0.9","","","","","<p style=""font-size: 48px;"">+</p>","null","","","","","","","","","","","","","","","","","",""
"","3179.4000000953674","spatial-recall","46","165927","0.0-2.0-2.14","1","1","2024-03-17 22:53:12","c33429291dc7a384f95165972fddd116","171.66.13.59","Mozilla/5.0 (Macintosh; Intel Mac OS X 10_15_7) AppleWebKit/537.36 (KHTML, like Gecko) Chrome/121.0.0.0 Safari/537.36","Macintosh","Chrome","121.0.0.0","OS X","10_15_7","null","en-US,en;q=0.9","","","","","","","[14,12,2,1]","4","552","false","[14,12,2,1]","1","4","4","[{""button"":14,""time"":1069.3000000715256},{""button"":12,""time"":1633.4000000953674},{""button"":2,""time"":2224.9000000953674},{""button"":1,""time"":2613.4000000953674},{""button"":""submit"",""time"":3179.4000000953674}]","","","","","","","","",""
"","","preload","47","166325","0.0-3.0","1","1","2024-03-17 22:53:12","c33429291dc7a384f95165972fddd116","171.66.13.59","Mozilla/5.0 (Macintosh; Intel Mac OS X 10_15_7) AppleWebKit/537.36 (KHTML, like Gecko) Chrome/121.0.0.0 Safari/537.36","Macintosh","Chrome","121.0.0.0","OS X","10_15_7","null","en-US,en;q=0.9","","","","","","","","","","","","","","","","true","false","[]","[]","[]","","","",""
"","1954","html-keyboard-response","48","168280","0.0-4.0","1","1","2024-03-17 22:53:12","c33429291dc7a384f95165972fddd116","171.66.13.59","Mozilla/5.0 (Macintosh; Intel Mac OS X 10_15_7) AppleWebKit/537.36 (KHTML, like Gecko) Chrome/121.0.0.0 Safari/537.36","Macintosh","Chrome","121.0.0.0","OS X","10_15_7","null","en-US,en;q=0.9","","","","","<p>You will now do a new task. Press any key to begin.</p>"," ","","","","","","","","","","","","","","","","","",""
"[{""page_index"":0,""viewing_time"":1256}]","1256","instructions","49","169539","0.0-5.0","1","1","2024-03-17 22:53:12","c33429291dc7a384f95165972fddd116","171.66.13.59","Mozilla/5.0 (Macintosh; Intel Mac OS X 10_15_7) AppleWebKit/537.36 (KHTML, like Gecko) Chrome/121.0.0.0 Safari/537.36","Macintosh","Chrome","121.0.0.0","OS X","10_15_7","null","en-US,en;q=0.9","","","","","","","","","","","","","","","","","","","","","","","",""
"","13711","html-keyboard-response","50","183252","0.0-6.0","1","1","2024-03-17 22:53:12","c33429291dc7a384f95165972fddd116","171.66.13.59","Mozilla/5.0 (Macintosh; Intel Mac OS X 10_15_7) AppleWebKit/537.36 (KHTML, like Gecko) Chrome/121.0.0.0 Safari/537.36","Macintosh","Chrome","121.0.0.0","OS X","10_15_7","null","en-US,en;q=0.9","","","","","
        <p>In this task, a circle will appear in the center
        of the screen.</p><p>If the circle is <strong>blue</strong>,
        press the letter F on the keyboard as fast as you can.</p>
        <p>If the circle is not <strong>blue</strong>, do not press a key.</p>
        <div style='width: 700px;'>
        <div style='float: left;'><img src='img/blue.png'></img>
        <p class='small'><strong>Press the F key</strong></p></div>
        <div style='float: right;'><img src='img/orange.png'></img>
        <p class='small'><strong>Do not press a key</strong></p></div>
        </div>
        <p>Press any key to begin.</p>
    ","f","","","","","","","","","","","","","","","","","",""
"","487","image-keyboard-response","51","185751","0.0-7.0-0.0","1","1","2024-03-17 22:53:12","c33429291dc7a384f95165972fddd116","171.66.13.59","Mozilla/5.0 (Macintosh; Intel Mac OS X 10_15_7) AppleWebKit/537.36 (KHTML, like Gecko) Chrome/121.0.0.0 Safari/537.36","Macintosh","Chrome","121.0.0.0","OS X","10_15_7","null","en-US,en;q=0.9","","","","","img/blue.png","f","","","","","","","","","","","","","","","response","f","true",""
"","null","html-keyboard-response","52","187204","0.0-7.0-1.0","1","1","2024-03-17 22:53:12","c33429291dc7a384f95165972fddd116","171.66.13.59","Mozilla/5.0 (Macintosh; Intel Mac OS X 10_15_7) AppleWebKit/537.36 (KHTML, like Gecko) Chrome/121.0.0.0 Safari/537.36","Macintosh","Chrome","121.0.0.0","OS X","10_15_7","null","en-US,en;q=0.9","","","","","<div style=""font-size:60px;"">+</div>","null","","","","","","","","","","","","","","","fixation","","","1444"
"","347","image-keyboard-response","53","187554","0.0-7.0-2.0","1","1","2024-03-17 22:53:12","c33429291dc7a384f95165972fddd116","171.66.13.59","Mozilla/5.0 (Macintosh; Intel Mac OS X 10_15_7) AppleWebKit/537.36 (KHTML, like Gecko) Chrome/121.0.0.0 Safari/537.36","Macintosh","Chrome","121.0.0.0","OS X","10_15_7","null","en-US,en;q=0.9","","","","","img/blue.png","f","","","","","","","","","","","","","","","response","f","true",""
"","null","html-keyboard-response","54","189017","0.0-7.0-3.0","1","1","2024-03-17 22:53:12","c33429291dc7a384f95165972fddd116","171.66.13.59","Mozilla/5.0 (Macintosh; Intel Mac OS X 10_15_7) AppleWebKit/537.36 (KHTML, like Gecko) Chrome/121.0.0.0 Safari/537.36","Macintosh","Chrome","121.0.0.0","OS X","10_15_7","null","en-US,en;q=0.9","","","","","<div style=""font-size:60px;"">+</div>","null","","","","","","","","","","","","","","","fixation","","","1458"
"","294","image-keyboard-response","55","189317","0.0-7.0-4.0","1","1","2024-03-17 22:53:12","c33429291dc7a384f95165972fddd116","171.66.13.59","Mozilla/5.0 (Macintosh; Intel Mac OS X 10_15_7) AppleWebKit/537.36 (KHTML, like Gecko) Chrome/121.0.0.0 Safari/537.36","Macintosh","Chrome","121.0.0.0","OS X","10_15_7","null","en-US,en;q=0.9","","","","","img/orange.png","f","","","","","","","","","","","","","","","response","null","false",""
"","null","html-keyboard-response","56","190721","0.0-7.0-5.0","1","1","2024-03-17 22:53:12","c33429291dc7a384f95165972fddd116","171.66.13.59","Mozilla/5.0 (Macintosh; Intel Mac OS X 10_15_7) AppleWebKit/537.36 (KHTML, like Gecko) Chrome/121.0.0.0 Safari/537.36","Macintosh","Chrome","121.0.0.0","OS X","10_15_7","null","en-US,en;q=0.9","","","","","<div style=""font-size:60px;"">+</div>","null","","","","","","","","","","","","","","","fixation","","","1397"
"","380","image-keyboard-response","57","191106","0.0-7.0-6.0","1","1","2024-03-17 22:53:12","c33429291dc7a384f95165972fddd116","171.66.13.59","Mozilla/5.0 (Macintosh; Intel Mac OS X 10_15_7) AppleWebKit/537.36 (KHTML, like Gecko) Chrome/121.0.0.0 Safari/537.36","Macintosh","Chrome","121.0.0.0","OS X","10_15_7","null","en-US,en;q=0.9","","","","","img/blue.png","f","","","","","","","","","","","","","","","response","f","true",""
"","null","html-keyboard-response","58","192580","0.0-7.0-7.0","1","1","2024-03-17 22:53:12","c33429291dc7a384f95165972fddd116","171.66.13.59","Mozilla/5.0 (Macintosh; Intel Mac OS X 10_15_7) AppleWebKit/537.36 (KHTML, like Gecko) Chrome/121.0.0.0 Safari/537.36","Macintosh","Chrome","121.0.0.0","OS X","10_15_7","null","en-US,en;q=0.9","","","","","<div style=""font-size:60px;"">+</div>","null","","","","","","","","","","","","","","","fixation","","","1467"
"","305","image-keyboard-response","59","192890","0.0-7.0-8.0","1","1","2024-03-17 22:53:12","c33429291dc7a384f95165972fddd116","171.66.13.59","Mozilla/5.0 (Macintosh; Intel Mac OS X 10_15_7) AppleWebKit/537.36 (KHTML, like Gecko) Chrome/121.0.0.0 Safari/537.36","Macintosh","Chrome","121.0.0.0","OS X","10_15_7","null","en-US,en;q=0.9","","","","","img/blue.png","f","","","","","","","","","","","","","","","response","f","true",""
"","null","html-keyboard-response","60","194280","0.0-7.0-9.0","1","1","2024-03-17 22:53:12","c33429291dc7a384f95165972fddd116","171.66.13.59","Mozilla/5.0 (Macintosh; Intel Mac OS X 10_15_7) AppleWebKit/537.36 (KHTML, like Gecko) Chrome/121.0.0.0 Safari/537.36","Macintosh","Chrome","121.0.0.0","OS X","10_15_7","null","en-US,en;q=0.9","","","","","<div style=""font-size:60px;"">+</div>","null","","","","","","","","","","","","","","","fixation","","","1384"
"","377","image-keyboard-response","61","194662","0.0-7.0-10.0","1","1","2024-03-17 22:53:12","c33429291dc7a384f95165972fddd116","171.66.13.59","Mozilla/5.0 (Macintosh; Intel Mac OS X 10_15_7) AppleWebKit/537.36 (KHTML, like Gecko) Chrome/121.0.0.0 Safari/537.36","Macintosh","Chrome","121.0.0.0","OS X","10_15_7","null","en-US,en;q=0.9","","","","","img/blue.png","f","","","","","","","","","","","","","","","response","f","true",""
"","null","html-keyboard-response","62","196152","0.0-7.0-11.0","1","1","2024-03-17 22:53:12","c33429291dc7a384f95165972fddd116","171.66.13.59","Mozilla/5.0 (Macintosh; Intel Mac OS X 10_15_7) AppleWebKit/537.36 (KHTML, like Gecko) Chrome/121.0.0.0 Safari/537.36","Macintosh","Chrome","121.0.0.0","OS X","10_15_7","null","en-US,en;q=0.9","","","","","<div style=""font-size:60px;"">+</div>","null","","","","","","","","","","","","","","","fixation","","","1482"
"","317","image-keyboard-response","63","196476","0.0-7.0-12.0","1","1","2024-03-17 22:53:12","c33429291dc7a384f95165972fddd116","171.66.13.59","Mozilla/5.0 (Macintosh; Intel Mac OS X 10_15_7) AppleWebKit/537.36 (KHTML, like Gecko) Chrome/121.0.0.0 Safari/537.36","Macintosh","Chrome","121.0.0.0","OS X","10_15_7","null","en-US,en;q=0.9","","","","","img/blue.png","f","","","","","","","","","","","","","","","response","f","true",""
"","null","html-keyboard-response","64","197887","0.0-7.0-13.0","1","1","2024-03-17 22:53:12","c33429291dc7a384f95165972fddd116","171.66.13.59","Mozilla/5.0 (Macintosh; Intel Mac OS X 10_15_7) AppleWebKit/537.36 (KHTML, like Gecko) Chrome/121.0.0.0 Safari/537.36","Macintosh","Chrome","121.0.0.0","OS X","10_15_7","null","en-US,en;q=0.9","","","","","<div style=""font-size:60px;"">+</div>","null","","","","","","","","","","","","","","","fixation","","","1402"
"","333","image-keyboard-response","65","198226","0.0-7.0-14.0","1","1","2024-03-17 22:53:12","c33429291dc7a384f95165972fddd116","171.66.13.59","Mozilla/5.0 (Macintosh; Intel Mac OS X 10_15_7) AppleWebKit/537.36 (KHTML, like Gecko) Chrome/121.0.0.0 Safari/537.36","Macintosh","Chrome","121.0.0.0","OS X","10_15_7","null","en-US,en;q=0.9","","","","","img/blue.png","f","","","","","","","","","","","","","","","response","f","true",""
"","null","html-keyboard-response","66","199663","0.0-7.0-15.0","1","1","2024-03-17 22:53:12","c33429291dc7a384f95165972fddd116","171.66.13.59","Mozilla/5.0 (Macintosh; Intel Mac OS X 10_15_7) AppleWebKit/537.36 (KHTML, like Gecko) Chrome/121.0.0.0 Safari/537.36","Macintosh","Chrome","121.0.0.0","OS X","10_15_7","null","en-US,en;q=0.9","","","","","<div style=""font-size:60px;"">+</div>","null","","","","","","","","","","","","","","","fixation","","","1429"
"","324","image-keyboard-response","67","199992","0.0-7.0-16.0","1","1","2024-03-17 22:53:12","c33429291dc7a384f95165972fddd116","171.66.13.59","Mozilla/5.0 (Macintosh; Intel Mac OS X 10_15_7) AppleWebKit/537.36 (KHTML, like Gecko) Chrome/121.0.0.0 Safari/537.36","Macintosh","Chrome","121.0.0.0","OS X","10_15_7","null","en-US,en;q=0.9","","","","","img/blue.png","f","","","","","","","","","","","","","","","response","f","true",""
"","null","html-keyboard-response","68","201404","0.0-7.0-17.0","1","1","2024-03-17 22:53:12","c33429291dc7a384f95165972fddd116","171.66.13.59","Mozilla/5.0 (Macintosh; Intel Mac OS X 10_15_7) AppleWebKit/537.36 (KHTML, like Gecko) Chrome/121.0.0.0 Safari/537.36","Macintosh","Chrome","121.0.0.0","OS X","10_15_7","null","en-US,en;q=0.9","","","","","<div style=""font-size:60px;"">+</div>","null","","","","","","","","","","","","","","","fixation","","","1404"
"","285","image-keyboard-response","69","201693","0.0-7.0-18.0","1","1","2024-03-17 22:53:12","c33429291dc7a384f95165972fddd116","171.66.13.59","Mozilla/5.0 (Macintosh; Intel Mac OS X 10_15_7) AppleWebKit/537.36 (KHTML, like Gecko) Chrome/121.0.0.0 Safari/537.36","Macintosh","Chrome","121.0.0.0","OS X","10_15_7","null","en-US,en;q=0.9","","","","","img/blue.png","f","","","","","","","","","","","","","","","response","f","true",""
"","null","html-keyboard-response","70","203155","0.0-7.0-19.0","1","1","2024-03-17 22:53:12","c33429291dc7a384f95165972fddd116","171.66.13.59","Mozilla/5.0 (Macintosh; Intel Mac OS X 10_15_7) AppleWebKit/537.36 (KHTML, like Gecko) Chrome/121.0.0.0 Safari/537.36","Macintosh","Chrome","121.0.0.0","OS X","10_15_7","null","en-US,en;q=0.9","","","","","<div style=""font-size:60px;"">+</div>","null","","","","","","","","","","","","","","","fixation","","","1453"
"","293","image-keyboard-response","71","203454","0.0-7.0-20.0","1","1","2024-03-17 22:53:12","c33429291dc7a384f95165972fddd116","171.66.13.59","Mozilla/5.0 (Macintosh; Intel Mac OS X 10_15_7) AppleWebKit/537.36 (KHTML, like Gecko) Chrome/121.0.0.0 Safari/537.36","Macintosh","Chrome","121.0.0.0","OS X","10_15_7","null","en-US,en;q=0.9","","","","","img/blue.png","f","","","","","","","","","","","","","","","response","f","true",""
"","null","html-keyboard-response","72","204671","0.0-7.0-21.0","1","1","2024-03-17 22:53:12","c33429291dc7a384f95165972fddd116","171.66.13.59","Mozilla/5.0 (Macintosh; Intel Mac OS X 10_15_7) AppleWebKit/537.36 (KHTML, like Gecko) Chrome/121.0.0.0 Safari/537.36","Macintosh","Chrome","121.0.0.0","OS X","10_15_7","null","en-US,en;q=0.9","","","","","<div style=""font-size:60px;"">+</div>","null","","","","","","","","","","","","","","","fixation","","","1212"
"","360","image-keyboard-response","73","205036","0.0-7.0-22.0","1","1","2024-03-17 22:53:12","c33429291dc7a384f95165972fddd116","171.66.13.59","Mozilla/5.0 (Macintosh; Intel Mac OS X 10_15_7) AppleWebKit/537.36 (KHTML, like Gecko) Chrome/121.0.0.0 Safari/537.36","Macintosh","Chrome","121.0.0.0","OS X","10_15_7","null","en-US,en;q=0.9","","","","","img/blue.png","f","","","","","","","","","","","","","","","response","f","true",""
"","null","html-keyboard-response","74","206418","0.0-7.0-23.0","1","1","2024-03-17 22:53:12","c33429291dc7a384f95165972fddd116","171.66.13.59","Mozilla/5.0 (Macintosh; Intel Mac OS X 10_15_7) AppleWebKit/537.36 (KHTML, like Gecko) Chrome/121.0.0.0 Safari/537.36","Macintosh","Chrome","121.0.0.0","OS X","10_15_7","null","en-US,en;q=0.9","","","","","<div style=""font-size:60px;"">+</div>","null","","","","","","","","","","","","","","","fixation","","","1374"
"","393","image-keyboard-response","75","206816","0.0-7.0-24.0","1","1","2024-03-17 22:53:12","c33429291dc7a384f95165972fddd116","171.66.13.59","Mozilla/5.0 (Macintosh; Intel Mac OS X 10_15_7) AppleWebKit/537.36 (KHTML, like Gecko) Chrome/121.0.0.0 Safari/537.36","Macintosh","Chrome","121.0.0.0","OS X","10_15_7","null","en-US,en;q=0.9","","","","","img/blue.png","f","","","","","","","","","","","","","","","response","f","true",""
"","null","html-keyboard-response","76","208179","0.0-7.0-25.0","1","1","2024-03-17 22:53:12","c33429291dc7a384f95165972fddd116","171.66.13.59","Mozilla/5.0 (Macintosh; Intel Mac OS X 10_15_7) AppleWebKit/537.36 (KHTML, like Gecko) Chrome/121.0.0.0 Safari/537.36","Macintosh","Chrome","121.0.0.0","OS X","10_15_7","null","en-US,en;q=0.9","","","","","<div style=""font-size:60px;"">+</div>","null","","","","","","","","","","","","","","","fixation","","","1354"
"","null","image-keyboard-response","77","209191","0.0-7.0-26.0","1","1","2024-03-17 22:53:12","c33429291dc7a384f95165972fddd116","171.66.13.59","Mozilla/5.0 (Macintosh; Intel Mac OS X 10_15_7) AppleWebKit/537.36 (KHTML, like Gecko) Chrome/121.0.0.0 Safari/537.36","Macintosh","Chrome","121.0.0.0","OS X","10_15_7","null","en-US,en;q=0.9","","","","","img/orange.png","null","","","","","","","","","","","","","","","response","null","true",""
"","null","html-keyboard-response","78","210530","0.0-7.0-27.0","1","1","2024-03-17 22:53:12","c33429291dc7a384f95165972fddd116","171.66.13.59","Mozilla/5.0 (Macintosh; Intel Mac OS X 10_15_7) AppleWebKit/537.36 (KHTML, like Gecko) Chrome/121.0.0.0 Safari/537.36","Macintosh","Chrome","121.0.0.0","OS X","10_15_7","null","en-US,en;q=0.9","","","","","<div style=""font-size:60px;"">+</div>","null","","","","","","","","","","","","","","","fixation","","","1330"
"","264","image-keyboard-response","79","210800","0.0-7.0-28.0","1","1","2024-03-17 22:53:12","c33429291dc7a384f95165972fddd116","171.66.13.59","Mozilla/5.0 (Macintosh; Intel Mac OS X 10_15_7) AppleWebKit/537.36 (KHTML, like Gecko) Chrome/121.0.0.0 Safari/537.36","Macintosh","Chrome","121.0.0.0","OS X","10_15_7","null","en-US,en;q=0.9","","","","","img/blue.png","f","","","","","","","","","","","","","","","response","f","true",""
"","null","html-keyboard-response","80","211941","0.0-7.0-29.0","1","1","2024-03-17 22:53:12","c33429291dc7a384f95165972fddd116","171.66.13.59","Mozilla/5.0 (Macintosh; Intel Mac OS X 10_15_7) AppleWebKit/537.36 (KHTML, like Gecko) Chrome/121.0.0.0 Safari/537.36","Macintosh","Chrome","121.0.0.0","OS X","10_15_7","null","en-US,en;q=0.9","","","","","<div style=""font-size:60px;"">+</div>","null","","","","","","","","","","","","","","","fixation","","","1131"
"","341","image-keyboard-response","81","212288","0.0-7.0-30.0","1","1","2024-03-17 22:53:12","c33429291dc7a384f95165972fddd116","171.66.13.59","Mozilla/5.0 (Macintosh; Intel Mac OS X 10_15_7) AppleWebKit/537.36 (KHTML, like Gecko) Chrome/121.0.0.0 Safari/537.36","Macintosh","Chrome","121.0.0.0","OS X","10_15_7","null","en-US,en;q=0.9","","","","","img/blue.png","f","","","","","","","","","","","","","","","response","f","true",""
"","null","html-keyboard-response","82","213630","0.0-7.0-31.0","1","1","2024-03-17 22:53:12","c33429291dc7a384f95165972fddd116","171.66.13.59","Mozilla/5.0 (Macintosh; Intel Mac OS X 10_15_7) AppleWebKit/537.36 (KHTML, like Gecko) Chrome/121.0.0.0 Safari/537.36","Macintosh","Chrome","121.0.0.0","OS X","10_15_7","null","en-US,en;q=0.9","","","","","<div style=""font-size:60px;"">+</div>","null","","","","","","","","","","","","","","","fixation","","","1334"
"","301","image-keyboard-response","83","213938","0.0-7.0-32.0","1","1","2024-03-17 22:53:12","c33429291dc7a384f95165972fddd116","171.66.13.59","Mozilla/5.0 (Macintosh; Intel Mac OS X 10_15_7) AppleWebKit/537.36 (KHTML, like Gecko) Chrome/121.0.0.0 Safari/537.36","Macintosh","Chrome","121.0.0.0","OS X","10_15_7","null","en-US,en;q=0.9","","","","","img/orange.png","f","","","","","","","","","","","","","","","response","null","false",""
"","null","html-keyboard-response","84","215269","0.0-7.0-33.0","1","1","2024-03-17 22:53:12","c33429291dc7a384f95165972fddd116","171.66.13.59","Mozilla/5.0 (Macintosh; Intel Mac OS X 10_15_7) AppleWebKit/537.36 (KHTML, like Gecko) Chrome/121.0.0.0 Safari/537.36","Macintosh","Chrome","121.0.0.0","OS X","10_15_7","null","en-US,en;q=0.9","","","","","<div style=""font-size:60px;"">+</div>","null","","","","","","","","","","","","","","","fixation","","","1324"
"","318","image-keyboard-response","85","215593","0.0-7.0-34.0","1","1","2024-03-17 22:53:12","c33429291dc7a384f95165972fddd116","171.66.13.59","Mozilla/5.0 (Macintosh; Intel Mac OS X 10_15_7) AppleWebKit/537.36 (KHTML, like Gecko) Chrome/121.0.0.0 Safari/537.36","Macintosh","Chrome","121.0.0.0","OS X","10_15_7","null","en-US,en;q=0.9","","","","","img/blue.png","f","","","","","","","","","","","","","","","response","f","true",""
"","null","html-keyboard-response","86","216794","0.0-7.0-35.0","1","1","2024-03-17 22:53:12","c33429291dc7a384f95165972fddd116","171.66.13.59","Mozilla/5.0 (Macintosh; Intel Mac OS X 10_15_7) AppleWebKit/537.36 (KHTML, like Gecko) Chrome/121.0.0.0 Safari/537.36","Macintosh","Chrome","121.0.0.0","OS X","10_15_7","null","en-US,en;q=0.9","","","","","<div style=""font-size:60px;"">+</div>","null","","","","","","","","","","","","","","","fixation","","","1193"
"","303","image-keyboard-response","87","217102","0.0-7.0-36.0","1","1","2024-03-17 22:53:12","c33429291dc7a384f95165972fddd116","171.66.13.59","Mozilla/5.0 (Macintosh; Intel Mac OS X 10_15_7) AppleWebKit/537.36 (KHTML, like Gecko) Chrome/121.0.0.0 Safari/537.36","Macintosh","Chrome","121.0.0.0","OS X","10_15_7","null","en-US,en;q=0.9","","","","","img/blue.png","f","","","","","","","","","","","","","","","response","f","true",""
"","null","html-keyboard-response","88","218246","0.0-7.0-37.0","1","1","2024-03-17 22:53:12","c33429291dc7a384f95165972fddd116","171.66.13.59","Mozilla/5.0 (Macintosh; Intel Mac OS X 10_15_7) AppleWebKit/537.36 (KHTML, like Gecko) Chrome/121.0.0.0 Safari/537.36","Macintosh","Chrome","121.0.0.0","OS X","10_15_7","null","en-US,en;q=0.9","","","","","<div style=""font-size:60px;"">+</div>","null","","","","","","","","","","","","","","","fixation","","","1134"
"","357","image-keyboard-response","89","218609","0.0-7.0-38.0","1","1","2024-03-17 22:53:12","c33429291dc7a384f95165972fddd116","171.66.13.59","Mozilla/5.0 (Macintosh; Intel Mac OS X 10_15_7) AppleWebKit/537.36 (KHTML, like Gecko) Chrome/121.0.0.0 Safari/537.36","Macintosh","Chrome","121.0.0.0","OS X","10_15_7","null","en-US,en;q=0.9","","","","","img/blue.png","f","","","","","","","","","","","","","","","response","f","true",""
"","null","html-keyboard-response","90","219891","0.0-7.0-39.0","1","1","2024-03-17 22:53:12","c33429291dc7a384f95165972fddd116","171.66.13.59","Mozilla/5.0 (Macintosh; Intel Mac OS X 10_15_7) AppleWebKit/537.36 (KHTML, like Gecko) Chrome/121.0.0.0 Safari/537.36","Macintosh","Chrome","121.0.0.0","OS X","10_15_7","null","en-US,en;q=0.9","","","","","<div style=""font-size:60px;"">+</div>","null","","","","","","","","","","","","","","","fixation","","","1276"
"","314","image-keyboard-response","91","220211","0.0-7.0-40.0","1","1","2024-03-17 22:53:12","c33429291dc7a384f95165972fddd116","171.66.13.59","Mozilla/5.0 (Macintosh; Intel Mac OS X 10_15_7) AppleWebKit/537.36 (KHTML, like Gecko) Chrome/121.0.0.0 Safari/537.36","Macintosh","Chrome","121.0.0.0","OS X","10_15_7","null","en-US,en;q=0.9","","","","","img/blue.png","f","","","","","","","","","","","","","","","response","f","true",""
"","null","html-keyboard-response","92","221151","0.0-7.0-41.0","1","1","2024-03-17 22:53:12","c33429291dc7a384f95165972fddd116","171.66.13.59","Mozilla/5.0 (Macintosh; Intel Mac OS X 10_15_7) AppleWebKit/537.36 (KHTML, like Gecko) Chrome/121.0.0.0 Safari/537.36","Macintosh","Chrome","121.0.0.0","OS X","10_15_7","null","en-US,en;q=0.9","","","","","<div style=""font-size:60px;"">+</div>","null","","","","","","","","","","","","","","","fixation","","","931"
"","292","image-keyboard-response","93","221449","0.0-7.0-42.0","1","1","2024-03-17 22:53:12","c33429291dc7a384f95165972fddd116","171.66.13.59","Mozilla/5.0 (Macintosh; Intel Mac OS X 10_15_7) AppleWebKit/537.36 (KHTML, like Gecko) Chrome/121.0.0.0 Safari/537.36","Macintosh","Chrome","121.0.0.0","OS X","10_15_7","null","en-US,en;q=0.9","","","","","img/blue.png","f","","","","","","","","","","","","","","","response","f","true",""
"","null","html-keyboard-response","94","222541","0.0-7.0-43.0","1","1","2024-03-17 22:53:12","c33429291dc7a384f95165972fddd116","171.66.13.59","Mozilla/5.0 (Macintosh; Intel Mac OS X 10_15_7) AppleWebKit/537.36 (KHTML, like Gecko) Chrome/121.0.0.0 Safari/537.36","Macintosh","Chrome","121.0.0.0","OS X","10_15_7","null","en-US,en;q=0.9","","","","","<div style=""font-size:60px;"">+</div>","null","","","","","","","","","","","","","","","fixation","","","1083"
"","null","image-keyboard-response","95","224552","0.0-7.0-44.0","1","1","2024-03-17 22:53:12","c33429291dc7a384f95165972fddd116","171.66.13.59","Mozilla/5.0 (Macintosh; Intel Mac OS X 10_15_7) AppleWebKit/537.36 (KHTML, like Gecko) Chrome/121.0.0.0 Safari/537.36","Macintosh","Chrome","121.0.0.0","OS X","10_15_7","null","en-US,en;q=0.9","","","","","img/orange.png","null","","","","","","","","","","","","","","","response","null","true",""
"","null","html-keyboard-response","96","225608","0.0-7.0-45.0","1","1","2024-03-17 22:53:12","c33429291dc7a384f95165972fddd116","171.66.13.59","Mozilla/5.0 (Macintosh; Intel Mac OS X 10_15_7) AppleWebKit/537.36 (KHTML, like Gecko) Chrome/121.0.0.0 Safari/537.36","Macintosh","Chrome","121.0.0.0","OS X","10_15_7","null","en-US,en;q=0.9","","","","","<div style=""font-size:60px;"">+</div>","null","","","","","","","","","","","","","","","fixation","","","1046"
"","333","image-keyboard-response","97","225945","0.0-7.0-46.0","1","1","2024-03-17 22:53:12","c33429291dc7a384f95165972fddd116","171.66.13.59","Mozilla/5.0 (Macintosh; Intel Mac OS X 10_15_7) AppleWebKit/537.36 (KHTML, like Gecko) Chrome/121.0.0.0 Safari/537.36","Macintosh","Chrome","121.0.0.0","OS X","10_15_7","null","en-US,en;q=0.9","","","","","img/blue.png","f","","","","","","","","","","","","","","","response","f","true",""
"","null","html-keyboard-response","98","226912","0.0-7.0-47.0","1","1","2024-03-17 22:53:12","c33429291dc7a384f95165972fddd116","171.66.13.59","Mozilla/5.0 (Macintosh; Intel Mac OS X 10_15_7) AppleWebKit/537.36 (KHTML, like Gecko) Chrome/121.0.0.0 Safari/537.36","Macintosh","Chrome","121.0.0.0","OS X","10_15_7","null","en-US,en;q=0.9","","","","","<div style=""font-size:60px;"">+</div>","null","","","","","","","","","","","","","","","fixation","","","958"
"","299","image-keyboard-response","99","227217","0.0-7.0-48.0","1","1","2024-03-17 22:53:12","c33429291dc7a384f95165972fddd116","171.66.13.59","Mozilla/5.0 (Macintosh; Intel Mac OS X 10_15_7) AppleWebKit/537.36 (KHTML, like Gecko) Chrome/121.0.0.0 Safari/537.36","Macintosh","Chrome","121.0.0.0","OS X","10_15_7","null","en-US,en;q=0.9","","","","","img/orange.png","f","","","","","","","","","","","","","","","response","null","false",""
"","null","html-keyboard-response","100","228258","0.0-7.0-49.0","1","1","2024-03-17 22:53:12","c33429291dc7a384f95165972fddd116","171.66.13.59","Mozilla/5.0 (Macintosh; Intel Mac OS X 10_15_7) AppleWebKit/537.36 (KHTML, like Gecko) Chrome/121.0.0.0 Safari/537.36","Macintosh","Chrome","121.0.0.0","OS X","10_15_7","null","en-US,en;q=0.9","","","","","<div style=""font-size:60px;"">+</div>","null","","","","","","","","","","","","","","","fixation","","","1028"
"","353","image-keyboard-response","101","228618","0.0-7.0-50.0","1","1","2024-03-17 22:53:12","c33429291dc7a384f95165972fddd116","171.66.13.59","Mozilla/5.0 (Macintosh; Intel Mac OS X 10_15_7) AppleWebKit/537.36 (KHTML, like Gecko) Chrome/121.0.0.0 Safari/537.36","Macintosh","Chrome","121.0.0.0","OS X","10_15_7","null","en-US,en;q=0.9","","","","","img/blue.png","f","","","","","","","","","","","","","","","response","f","true",""
"","null","html-keyboard-response","102","229744","0.0-7.0-51.0","1","1","2024-03-17 22:53:12","c33429291dc7a384f95165972fddd116","171.66.13.59","Mozilla/5.0 (Macintosh; Intel Mac OS X 10_15_7) AppleWebKit/537.36 (KHTML, like Gecko) Chrome/121.0.0.0 Safari/537.36","Macintosh","Chrome","121.0.0.0","OS X","10_15_7","null","en-US,en;q=0.9","","","","","<div style=""font-size:60px;"">+</div>","null","","","","","","","","","","","","","","","fixation","","","1118"
"","323","image-keyboard-response","103","230072","0.0-7.0-52.0","1","1","2024-03-17 22:53:12","c33429291dc7a384f95165972fddd116","171.66.13.59","Mozilla/5.0 (Macintosh; Intel Mac OS X 10_15_7) AppleWebKit/537.36 (KHTML, like Gecko) Chrome/121.0.0.0 Safari/537.36","Macintosh","Chrome","121.0.0.0","OS X","10_15_7","null","en-US,en;q=0.9","","","","","img/blue.png","f","","","","","","","","","","","","","","","response","f","true",""
"","null","html-keyboard-response","104","230975","0.0-7.0-53.0","1","1","2024-03-17 22:53:12","c33429291dc7a384f95165972fddd116","171.66.13.59","Mozilla/5.0 (Macintosh; Intel Mac OS X 10_15_7) AppleWebKit/537.36 (KHTML, like Gecko) Chrome/121.0.0.0 Safari/537.36","Macintosh","Chrome","121.0.0.0","OS X","10_15_7","null","en-US,en;q=0.9","","","","","<div style=""font-size:60px;"">+</div>","null","","","","","","","","","","","","","","","fixation","","","892"
"","397","image-keyboard-response","105","231379","0.0-7.0-54.0","1","1","2024-03-17 22:53:12","c33429291dc7a384f95165972fddd116","171.66.13.59","Mozilla/5.0 (Macintosh; Intel Mac OS X 10_15_7) AppleWebKit/537.36 (KHTML, like Gecko) Chrome/121.0.0.0 Safari/537.36","Macintosh","Chrome","121.0.0.0","OS X","10_15_7","null","en-US,en;q=0.9","","","","","img/blue.png","f","","","","","","","","","","","","","","","response","f","true",""
"","null","html-keyboard-response","106","232438","0.0-7.0-55.0","1","1","2024-03-17 22:53:12","c33429291dc7a384f95165972fddd116","171.66.13.59","Mozilla/5.0 (Macintosh; Intel Mac OS X 10_15_7) AppleWebKit/537.36 (KHTML, like Gecko) Chrome/121.0.0.0 Safari/537.36","Macintosh","Chrome","121.0.0.0","OS X","10_15_7","null","en-US,en;q=0.9","","","","","<div style=""font-size:60px;"">+</div>","null","","","","","","","","","","","","","","","fixation","","","1053"
"","318","image-keyboard-response","107","232758","0.0-7.0-56.0","1","1","2024-03-17 22:53:12","c33429291dc7a384f95165972fddd116","171.66.13.59","Mozilla/5.0 (Macintosh; Intel Mac OS X 10_15_7) AppleWebKit/537.36 (KHTML, like Gecko) Chrome/121.0.0.0 Safari/537.36","Macintosh","Chrome","121.0.0.0","OS X","10_15_7","null","en-US,en;q=0.9","","","","","img/blue.png","f","","","","","","","","","","","","","","","response","f","true",""
"","null","html-keyboard-response","108","233849","0.0-7.0-57.0","1","1","2024-03-17 22:53:12","c33429291dc7a384f95165972fddd116","171.66.13.59","Mozilla/5.0 (Macintosh; Intel Mac OS X 10_15_7) AppleWebKit/537.36 (KHTML, like Gecko) Chrome/121.0.0.0 Safari/537.36","Macintosh","Chrome","121.0.0.0","OS X","10_15_7","null","en-US,en;q=0.9","","","","","<div style=""font-size:60px;"">+</div>","null","","","","","","","","","","","","","","","fixation","","","1083"
"","null","image-keyboard-response","109","235862","0.0-7.0-58.0","1","1","2024-03-17 22:53:12","c33429291dc7a384f95165972fddd116","171.66.13.59","Mozilla/5.0 (Macintosh; Intel Mac OS X 10_15_7) AppleWebKit/537.36 (KHTML, like Gecko) Chrome/121.0.0.0 Safari/537.36","Macintosh","Chrome","121.0.0.0","OS X","10_15_7","null","en-US,en;q=0.9","","","","","img/orange.png","null","","","","","","","","","","","","","","","response","null","true",""
"","null","html-keyboard-response","110","236963","0.0-7.0-59.0","1","1","2024-03-17 22:53:12","c33429291dc7a384f95165972fddd116","171.66.13.59","Mozilla/5.0 (Macintosh; Intel Mac OS X 10_15_7) AppleWebKit/537.36 (KHTML, like Gecko) Chrome/121.0.0.0 Safari/537.36","Macintosh","Chrome","121.0.0.0","OS X","10_15_7","null","en-US,en;q=0.9","","","","","<div style=""font-size:60px;"">+</div>","null","","","","","","","","","","","","","","","fixation","","","1092"
"","360","image-keyboard-response","111","237329","0.0-7.0-0.1","1","1","2024-03-17 22:53:12","c33429291dc7a384f95165972fddd116","171.66.13.59","Mozilla/5.0 (Macintosh; Intel Mac OS X 10_15_7) AppleWebKit/537.36 (KHTML, like Gecko) Chrome/121.0.0.0 Safari/537.36","Macintosh","Chrome","121.0.0.0","OS X","10_15_7","null","en-US,en;q=0.9","","","","","img/blue.png","f","","","","","","","","","","","","","","","response","f","true",""
"","null","html-keyboard-response","112","238783","0.0-7.0-1.1","1","1","2024-03-17 22:53:12","c33429291dc7a384f95165972fddd116","171.66.13.59","Mozilla/5.0 (Macintosh; Intel Mac OS X 10_15_7) AppleWebKit/537.36 (KHTML, like Gecko) Chrome/121.0.0.0 Safari/537.36","Macintosh","Chrome","121.0.0.0","OS X","10_15_7","null","en-US,en;q=0.9","","","","","<div style=""font-size:60px;"">+</div>","null","","","","","","","","","","","","","","","fixation","","","1444"
"","297","image-keyboard-response","113","239087","0.0-7.0-2.1","1","1","2024-03-17 22:53:12","c33429291dc7a384f95165972fddd116","171.66.13.59","Mozilla/5.0 (Macintosh; Intel Mac OS X 10_15_7) AppleWebKit/537.36 (KHTML, like Gecko) Chrome/121.0.0.0 Safari/537.36","Macintosh","Chrome","121.0.0.0","OS X","10_15_7","null","en-US,en;q=0.9","","","","","img/blue.png","f","","","","","","","","","","","","","","","response","f","true",""
"","null","html-keyboard-response","114","240553","0.0-7.0-3.1","1","1","2024-03-17 22:53:12","c33429291dc7a384f95165972fddd116","171.66.13.59","Mozilla/5.0 (Macintosh; Intel Mac OS X 10_15_7) AppleWebKit/537.36 (KHTML, like Gecko) Chrome/121.0.0.0 Safari/537.36","Macintosh","Chrome","121.0.0.0","OS X","10_15_7","null","en-US,en;q=0.9","","","","","<div style=""font-size:60px;"">+</div>","null","","","","","","","","","","","","","","","fixation","","","1458"
"","null","image-keyboard-response","115","241564","0.0-7.0-4.1","1","1","2024-03-17 22:53:12","c33429291dc7a384f95165972fddd116","171.66.13.59","Mozilla/5.0 (Macintosh; Intel Mac OS X 10_15_7) AppleWebKit/537.36 (KHTML, like Gecko) Chrome/121.0.0.0 Safari/537.36","Macintosh","Chrome","121.0.0.0","OS X","10_15_7","null","en-US,en;q=0.9","","","","","img/orange.png","null","","","","","","","","","","","","","","","response","null","true",""
"","null","html-keyboard-response","116","242972","0.0-7.0-5.1","1","1","2024-03-17 22:53:12","c33429291dc7a384f95165972fddd116","171.66.13.59","Mozilla/5.0 (Macintosh; Intel Mac OS X 10_15_7) AppleWebKit/537.36 (KHTML, like Gecko) Chrome/121.0.0.0 Safari/537.36","Macintosh","Chrome","121.0.0.0","OS X","10_15_7","null","en-US,en;q=0.9","","","","","<div style=""font-size:60px;"">+</div>","null","","","","","","","","","","","","","","","fixation","","","1397"
"","289","image-keyboard-response","117","243268","0.0-7.0-6.1","1","1","2024-03-17 22:53:12","c33429291dc7a384f95165972fddd116","171.66.13.59","Mozilla/5.0 (Macintosh; Intel Mac OS X 10_15_7) AppleWebKit/537.36 (KHTML, like Gecko) Chrome/121.0.0.0 Safari/537.36","Macintosh","Chrome","121.0.0.0","OS X","10_15_7","null","en-US,en;q=0.9","","","","","img/blue.png","f","","","","","","","","","","","","","","","response","f","true",""
"","null","html-keyboard-response","118","244745","0.0-7.0-7.1","1","1","2024-03-17 22:53:12","c33429291dc7a384f95165972fddd116","171.66.13.59","Mozilla/5.0 (Macintosh; Intel Mac OS X 10_15_7) AppleWebKit/537.36 (KHTML, like Gecko) Chrome/121.0.0.0 Safari/537.36","Macintosh","Chrome","121.0.0.0","OS X","10_15_7","null","en-US,en;q=0.9","","","","","<div style=""font-size:60px;"">+</div>","null","","","","","","","","","","","","","","","fixation","","","1467"
"","328","image-keyboard-response","119","245080","0.0-7.0-8.1","1","1","2024-03-17 22:53:12","c33429291dc7a384f95165972fddd116","171.66.13.59","Mozilla/5.0 (Macintosh; Intel Mac OS X 10_15_7) AppleWebKit/537.36 (KHTML, like Gecko) Chrome/121.0.0.0 Safari/537.36","Macintosh","Chrome","121.0.0.0","OS X","10_15_7","null","en-US,en;q=0.9","","","","","img/blue.png","f","","","","","","","","","","","","","","","response","f","true",""
"","null","html-keyboard-response","120","246473","0.0-7.0-9.1","1","1","2024-03-17 22:53:12","c33429291dc7a384f95165972fddd116","171.66.13.59","Mozilla/5.0 (Macintosh; Intel Mac OS X 10_15_7) AppleWebKit/537.36 (KHTML, like Gecko) Chrome/121.0.0.0 Safari/537.36","Macintosh","Chrome","121.0.0.0","OS X","10_15_7","null","en-US,en;q=0.9","","","","","<div style=""font-size:60px;"">+</div>","null","","","","","","","","","","","","","","","fixation","","","1384"
"","305","image-keyboard-response","121","246784","0.0-7.0-10.1","1","1","2024-03-17 22:53:12","c33429291dc7a384f95165972fddd116","171.66.13.59","Mozilla/5.0 (Macintosh; Intel Mac OS X 10_15_7) AppleWebKit/537.36 (KHTML, like Gecko) Chrome/121.0.0.0 Safari/537.36","Macintosh","Chrome","121.0.0.0","OS X","10_15_7","null","en-US,en;q=0.9","","","","","img/blue.png","f","","","","","","","","","","","","","","","response","f","true",""
"","null","html-keyboard-response","122","248276","0.0-7.0-11.1","1","1","2024-03-17 22:53:12","c33429291dc7a384f95165972fddd116","171.66.13.59","Mozilla/5.0 (Macintosh; Intel Mac OS X 10_15_7) AppleWebKit/537.36 (KHTML, like Gecko) Chrome/121.0.0.0 Safari/537.36","Macintosh","Chrome","121.0.0.0","OS X","10_15_7","null","en-US,en;q=0.9","","","","","<div style=""font-size:60px;"">+</div>","null","","","","","","","","","","","","","","","fixation","","","1482"
"","343","image-keyboard-response","123","248625","0.0-7.0-12.1","1","1","2024-03-17 22:53:12","c33429291dc7a384f95165972fddd116","171.66.13.59","Mozilla/5.0 (Macintosh; Intel Mac OS X 10_15_7) AppleWebKit/537.36 (KHTML, like Gecko) Chrome/121.0.0.0 Safari/537.36","Macintosh","Chrome","121.0.0.0","OS X","10_15_7","null","en-US,en;q=0.9","","","","","img/blue.png","f","","","","","","","","","","","","","","","response","f","true",""
"","null","html-keyboard-response","124","250032","0.0-7.0-13.1","1","1","2024-03-17 22:53:12","c33429291dc7a384f95165972fddd116","171.66.13.59","Mozilla/5.0 (Macintosh; Intel Mac OS X 10_15_7) AppleWebKit/537.36 (KHTML, like Gecko) Chrome/121.0.0.0 Safari/537.36","Macintosh","Chrome","121.0.0.0","OS X","10_15_7","null","en-US,en;q=0.9","","","","","<div style=""font-size:60px;"">+</div>","null","","","","","","","","","","","","","","","fixation","","","1402"
"","316","image-keyboard-response","125","250354","0.0-7.0-14.1","1","1","2024-03-17 22:53:12","c33429291dc7a384f95165972fddd116","171.66.13.59","Mozilla/5.0 (Macintosh; Intel Mac OS X 10_15_7) AppleWebKit/537.36 (KHTML, like Gecko) Chrome/121.0.0.0 Safari/537.36","Macintosh","Chrome","121.0.0.0","OS X","10_15_7","null","en-US,en;q=0.9","","","","","img/blue.png","f","","","","","","","","","","","","","","","response","f","true",""
"","null","html-keyboard-response","126","251794","0.0-7.0-15.1","1","1","2024-03-17 22:53:12","c33429291dc7a384f95165972fddd116","171.66.13.59","Mozilla/5.0 (Macintosh; Intel Mac OS X 10_15_7) AppleWebKit/537.36 (KHTML, like Gecko) Chrome/121.0.0.0 Safari/537.36","Macintosh","Chrome","121.0.0.0","OS X","10_15_7","null","en-US,en;q=0.9","","","","","<div style=""font-size:60px;"">+</div>","null","","","","","","","","","","","","","","","fixation","","","1429"
"","290","image-keyboard-response","127","252089","0.0-7.0-16.1","1","1","2024-03-17 22:53:12","c33429291dc7a384f95165972fddd116","171.66.13.59","Mozilla/5.0 (Macintosh; Intel Mac OS X 10_15_7) AppleWebKit/537.36 (KHTML, like Gecko) Chrome/121.0.0.0 Safari/537.36","Macintosh","Chrome","121.0.0.0","OS X","10_15_7","null","en-US,en;q=0.9","","","","","img/blue.png","f","","","","","","","","","","","","","","","response","f","true",""
"","null","html-keyboard-response","128","253502","0.0-7.0-17.1","1","1","2024-03-17 22:53:12","c33429291dc7a384f95165972fddd116","171.66.13.59","Mozilla/5.0 (Macintosh; Intel Mac OS X 10_15_7) AppleWebKit/537.36 (KHTML, like Gecko) Chrome/121.0.0.0 Safari/537.36","Macintosh","Chrome","121.0.0.0","OS X","10_15_7","null","en-US,en;q=0.9","","","","","<div style=""font-size:60px;"">+</div>","null","","","","","","","","","","","","","","","fixation","","","1404"
"","366","image-keyboard-response","129","253875","0.0-7.0-18.1","1","1","2024-03-17 22:53:12","c33429291dc7a384f95165972fddd116","171.66.13.59","Mozilla/5.0 (Macintosh; Intel Mac OS X 10_15_7) AppleWebKit/537.36 (KHTML, like Gecko) Chrome/121.0.0.0 Safari/537.36","Macintosh","Chrome","121.0.0.0","OS X","10_15_7","null","en-US,en;q=0.9","","","","","img/blue.png","f","","","","","","","","","","","","","","","response","f","true",""
"","null","html-keyboard-response","130","255339","0.0-7.0-19.1","1","1","2024-03-17 22:53:12","c33429291dc7a384f95165972fddd116","171.66.13.59","Mozilla/5.0 (Macintosh; Intel Mac OS X 10_15_7) AppleWebKit/537.36 (KHTML, like Gecko) Chrome/121.0.0.0 Safari/537.36","Macintosh","Chrome","121.0.0.0","OS X","10_15_7","null","en-US,en;q=0.9","","","","","<div style=""font-size:60px;"">+</div>","null","","","","","","","","","","","","","","","fixation","","","1453"
"","295","image-keyboard-response","131","255640","0.0-7.0-20.1","1","1","2024-03-17 22:53:12","c33429291dc7a384f95165972fddd116","171.66.13.59","Mozilla/5.0 (Macintosh; Intel Mac OS X 10_15_7) AppleWebKit/537.36 (KHTML, like Gecko) Chrome/121.0.0.0 Safari/537.36","Macintosh","Chrome","121.0.0.0","OS X","10_15_7","null","en-US,en;q=0.9","","","","","img/blue.png","f","","","","","","","","","","","","","","","response","f","true",""
"","null","html-keyboard-response","132","256859","0.0-7.0-21.1","1","1","2024-03-17 22:53:12","c33429291dc7a384f95165972fddd116","171.66.13.59","Mozilla/5.0 (Macintosh; Intel Mac OS X 10_15_7) AppleWebKit/537.36 (KHTML, like Gecko) Chrome/121.0.0.0 Safari/537.36","Macintosh","Chrome","121.0.0.0","OS X","10_15_7","null","en-US,en;q=0.9","","","","","<div style=""font-size:60px;"">+</div>","null","","","","","","","","","","","","","","","fixation","","","1212"
"","277","image-keyboard-response","133","257141","0.0-7.0-22.1","1","1","2024-03-17 22:53:12","c33429291dc7a384f95165972fddd116","171.66.13.59","Mozilla/5.0 (Macintosh; Intel Mac OS X 10_15_7) AppleWebKit/537.36 (KHTML, like Gecko) Chrome/121.0.0.0 Safari/537.36","Macintosh","Chrome","121.0.0.0","OS X","10_15_7","null","en-US,en;q=0.9","","","","","img/blue.png","f","","","","","","","","","","","","","","","response","f","true",""
"","null","html-keyboard-response","134","258525","0.0-7.0-23.1","1","1","2024-03-17 22:53:12","c33429291dc7a384f95165972fddd116","171.66.13.59","Mozilla/5.0 (Macintosh; Intel Mac OS X 10_15_7) AppleWebKit/537.36 (KHTML, like Gecko) Chrome/121.0.0.0 Safari/537.36","Macintosh","Chrome","121.0.0.0","OS X","10_15_7","null","en-US,en;q=0.9","","","","","<div style=""font-size:60px;"">+</div>","null","","","","","","","","","","","","","","","fixation","","","1374"
"","324","image-keyboard-response","135","258857","0.0-7.0-24.1","1","1","2024-03-17 22:53:12","c33429291dc7a384f95165972fddd116","171.66.13.59","Mozilla/5.0 (Macintosh; Intel Mac OS X 10_15_7) AppleWebKit/537.36 (KHTML, like Gecko) Chrome/121.0.0.0 Safari/537.36","Macintosh","Chrome","121.0.0.0","OS X","10_15_7","null","en-US,en;q=0.9","","","","","img/blue.png","f","","","","","","","","","","","","","","","response","f","true",""
"","null","html-keyboard-response","136","260217","0.0-7.0-25.1","1","1","2024-03-17 22:53:12","c33429291dc7a384f95165972fddd116","171.66.13.59","Mozilla/5.0 (Macintosh; Intel Mac OS X 10_15_7) AppleWebKit/537.36 (KHTML, like Gecko) Chrome/121.0.0.0 Safari/537.36","Macintosh","Chrome","121.0.0.0","OS X","10_15_7","null","en-US,en;q=0.9","","","","","<div style=""font-size:60px;"">+</div>","null","","","","","","","","","","","","","","","fixation","","","1354"
"","null","image-keyboard-response","137","261230","0.0-7.0-26.1","1","1","2024-03-17 22:53:12","c33429291dc7a384f95165972fddd116","171.66.13.59","Mozilla/5.0 (Macintosh; Intel Mac OS X 10_15_7) AppleWebKit/537.36 (KHTML, like Gecko) Chrome/121.0.0.0 Safari/537.36","Macintosh","Chrome","121.0.0.0","OS X","10_15_7","null","en-US,en;q=0.9","","","","","img/orange.png","null","","","","","","","","","","","","","","","response","null","true",""
"","null","html-keyboard-response","138","262572","0.0-7.0-27.1","1","1","2024-03-17 22:53:12","c33429291dc7a384f95165972fddd116","171.66.13.59","Mozilla/5.0 (Macintosh; Intel Mac OS X 10_15_7) AppleWebKit/537.36 (KHTML, like Gecko) Chrome/121.0.0.0 Safari/537.36","Macintosh","Chrome","121.0.0.0","OS X","10_15_7","null","en-US,en;q=0.9","","","","","<div style=""font-size:60px;"">+</div>","null","","","","","","","","","","","","","","","fixation","","","1330"
"","308","image-keyboard-response","139","262886","0.0-7.0-28.1","1","1","2024-03-17 22:53:12","c33429291dc7a384f95165972fddd116","171.66.13.59","Mozilla/5.0 (Macintosh; Intel Mac OS X 10_15_7) AppleWebKit/537.36 (KHTML, like Gecko) Chrome/121.0.0.0 Safari/537.36","Macintosh","Chrome","121.0.0.0","OS X","10_15_7","null","en-US,en;q=0.9","","","","","img/blue.png","f","","","","","","","","","","","","","","","response","f","true",""
"","null","html-keyboard-response","140","264027","0.0-7.0-29.1","1","1","2024-03-17 22:53:12","c33429291dc7a384f95165972fddd116","171.66.13.59","Mozilla/5.0 (Macintosh; Intel Mac OS X 10_15_7) AppleWebKit/537.36 (KHTML, like Gecko) Chrome/121.0.0.0 Safari/537.36","Macintosh","Chrome","121.0.0.0","OS X","10_15_7","null","en-US,en;q=0.9","","","","","<div style=""font-size:60px;"">+</div>","null","","","","","","","","","","","","","","","fixation","","","1131"
"","260","image-keyboard-response","141","264295","0.0-7.0-30.1","1","1","2024-03-17 22:53:12","c33429291dc7a384f95165972fddd116","171.66.13.59","Mozilla/5.0 (Macintosh; Intel Mac OS X 10_15_7) AppleWebKit/537.36 (KHTML, like Gecko) Chrome/121.0.0.0 Safari/537.36","Macintosh","Chrome","121.0.0.0","OS X","10_15_7","null","en-US,en;q=0.9","","","","","img/blue.png","f","","","","","","","","","","","","","","","response","f","true",""
"","null","html-keyboard-response","142","265635","0.0-7.0-31.1","1","1","2024-03-17 22:53:12","c33429291dc7a384f95165972fddd116","171.66.13.59","Mozilla/5.0 (Macintosh; Intel Mac OS X 10_15_7) AppleWebKit/537.36 (KHTML, like Gecko) Chrome/121.0.0.0 Safari/537.36","Macintosh","Chrome","121.0.0.0","OS X","10_15_7","null","en-US,en;q=0.9","","","","","<div style=""font-size:60px;"">+</div>","null","","","","","","","","","","","","","","","fixation","","","1334"
"","null","image-keyboard-response","143","267643","0.0-7.0-32.1","1","1","2024-03-17 22:53:12","c33429291dc7a384f95165972fddd116","171.66.13.59","Mozilla/5.0 (Macintosh; Intel Mac OS X 10_15_7) AppleWebKit/537.36 (KHTML, like Gecko) Chrome/121.0.0.0 Safari/537.36","Macintosh","Chrome","121.0.0.0","OS X","10_15_7","null","en-US,en;q=0.9","","","","","img/orange.png","null","","","","","","","","","","","","","","","response","null","true",""
"","null","html-keyboard-response","144","268979","0.0-7.0-33.1","1","1","2024-03-17 22:53:12","c33429291dc7a384f95165972fddd116","171.66.13.59","Mozilla/5.0 (Macintosh; Intel Mac OS X 10_15_7) AppleWebKit/537.36 (KHTML, like Gecko) Chrome/121.0.0.0 Safari/537.36","Macintosh","Chrome","121.0.0.0","OS X","10_15_7","null","en-US,en;q=0.9","","","","","<div style=""font-size:60px;"">+</div>","null","","","","","","","","","","","","","","","fixation","","","1324"
"","287","image-keyboard-response","145","269273","0.0-7.0-34.1","1","1","2024-03-17 22:53:12","c33429291dc7a384f95165972fddd116","171.66.13.59","Mozilla/5.0 (Macintosh; Intel Mac OS X 10_15_7) AppleWebKit/537.36 (KHTML, like Gecko) Chrome/121.0.0.0 Safari/537.36","Macintosh","Chrome","121.0.0.0","OS X","10_15_7","null","en-US,en;q=0.9","","","","","img/blue.png","f","","","","","","","","","","","","","","","response","f","true",""
"","null","html-keyboard-response","146","270476","0.0-7.0-35.1","1","1","2024-03-17 22:53:12","c33429291dc7a384f95165972fddd116","171.66.13.59","Mozilla/5.0 (Macintosh; Intel Mac OS X 10_15_7) AppleWebKit/537.36 (KHTML, like Gecko) Chrome/121.0.0.0 Safari/537.36","Macintosh","Chrome","121.0.0.0","OS X","10_15_7","null","en-US,en;q=0.9","","","","","<div style=""font-size:60px;"">+</div>","null","","","","","","","","","","","","","","","fixation","","","1193"
"","240","image-keyboard-response","147","270723","0.0-7.0-36.1","1","1","2024-03-17 22:53:12","c33429291dc7a384f95165972fddd116","171.66.13.59","Mozilla/5.0 (Macintosh; Intel Mac OS X 10_15_7) AppleWebKit/537.36 (KHTML, like Gecko) Chrome/121.0.0.0 Safari/537.36","Macintosh","Chrome","121.0.0.0","OS X","10_15_7","null","en-US,en;q=0.9","","","","","img/blue.png","f","","","","","","","","","","","","","","","response","f","true",""
"","null","html-keyboard-response","148","271869","0.0-7.0-37.1","1","1","2024-03-17 22:53:12","c33429291dc7a384f95165972fddd116","171.66.13.59","Mozilla/5.0 (Macintosh; Intel Mac OS X 10_15_7) AppleWebKit/537.36 (KHTML, like Gecko) Chrome/121.0.0.0 Safari/537.36","Macintosh","Chrome","121.0.0.0","OS X","10_15_7","null","en-US,en;q=0.9","","","","","<div style=""font-size:60px;"">+</div>","null","","","","","","","","","","","","","","","fixation","","","1134"
"","265","image-keyboard-response","149","272141","0.0-7.0-38.1","1","1","2024-03-17 22:53:12","c33429291dc7a384f95165972fddd116","171.66.13.59","Mozilla/5.0 (Macintosh; Intel Mac OS X 10_15_7) AppleWebKit/537.36 (KHTML, like Gecko) Chrome/121.0.0.0 Safari/537.36","Macintosh","Chrome","121.0.0.0","OS X","10_15_7","null","en-US,en;q=0.9","","","","","img/blue.png","f","","","","","","","","","","","","","","","response","f","true",""
"","null","html-keyboard-response","150","273424","0.0-7.0-39.1","1","1","2024-03-17 22:53:12","c33429291dc7a384f95165972fddd116","171.66.13.59","Mozilla/5.0 (Macintosh; Intel Mac OS X 10_15_7) AppleWebKit/537.36 (KHTML, like Gecko) Chrome/121.0.0.0 Safari/537.36","Macintosh","Chrome","121.0.0.0","OS X","10_15_7","null","en-US,en;q=0.9","","","","","<div style=""font-size:60px;"">+</div>","null","","","","","","","","","","","","","","","fixation","","","1276"
"","283","image-keyboard-response","151","273714","0.0-7.0-40.1","1","1","2024-03-17 22:53:12","c33429291dc7a384f95165972fddd116","171.66.13.59","Mozilla/5.0 (Macintosh; Intel Mac OS X 10_15_7) AppleWebKit/537.36 (KHTML, like Gecko) Chrome/121.0.0.0 Safari/537.36","Macintosh","Chrome","121.0.0.0","OS X","10_15_7","null","en-US,en;q=0.9","","","","","img/blue.png","f","","","","","","","","","","","","","","","response","f","true",""
"","null","html-keyboard-response","152","274656","0.0-7.0-41.1","1","1","2024-03-17 22:53:12","c33429291dc7a384f95165972fddd116","171.66.13.59","Mozilla/5.0 (Macintosh; Intel Mac OS X 10_15_7) AppleWebKit/537.36 (KHTML, like Gecko) Chrome/121.0.0.0 Safari/537.36","Macintosh","Chrome","121.0.0.0","OS X","10_15_7","null","en-US,en;q=0.9","","","","","<div style=""font-size:60px;"">+</div>","null","","","","","","","","","","","","","","","fixation","","","931"
"","348","image-keyboard-response","153","275011","0.0-7.0-42.1","1","1","2024-03-17 22:53:12","c33429291dc7a384f95165972fddd116","171.66.13.59","Mozilla/5.0 (Macintosh; Intel Mac OS X 10_15_7) AppleWebKit/537.36 (KHTML, like Gecko) Chrome/121.0.0.0 Safari/537.36","Macintosh","Chrome","121.0.0.0","OS X","10_15_7","null","en-US,en;q=0.9","","","","","img/blue.png","f","","","","","","","","","","","","","","","response","f","true",""
"","null","html-keyboard-response","154","276104","0.0-7.0-43.1","1","1","2024-03-17 22:53:12","c33429291dc7a384f95165972fddd116","171.66.13.59","Mozilla/5.0 (Macintosh; Intel Mac OS X 10_15_7) AppleWebKit/537.36 (KHTML, like Gecko) Chrome/121.0.0.0 Safari/537.36","Macintosh","Chrome","121.0.0.0","OS X","10_15_7","null","en-US,en;q=0.9","","","","","<div style=""font-size:60px;"">+</div>","null","","","","","","","","","","","","","","","fixation","","","1083"
"","null","image-keyboard-response","155","278112","0.0-7.0-44.1","1","1","2024-03-17 22:53:12","c33429291dc7a384f95165972fddd116","171.66.13.59","Mozilla/5.0 (Macintosh; Intel Mac OS X 10_15_7) AppleWebKit/537.36 (KHTML, like Gecko) Chrome/121.0.0.0 Safari/537.36","Macintosh","Chrome","121.0.0.0","OS X","10_15_7","null","en-US,en;q=0.9","","","","","img/orange.png","null","","","","","","","","","","","","","","","response","null","true",""
"","null","html-keyboard-response","156","279171","0.0-7.0-45.1","1","1","2024-03-17 22:53:12","c33429291dc7a384f95165972fddd116","171.66.13.59","Mozilla/5.0 (Macintosh; Intel Mac OS X 10_15_7) AppleWebKit/537.36 (KHTML, like Gecko) Chrome/121.0.0.0 Safari/537.36","Macintosh","Chrome","121.0.0.0","OS X","10_15_7","null","en-US,en;q=0.9","","","","","<div style=""font-size:60px;"">+</div>","null","","","","","","","","","","","","","","","fixation","","","1046"
"","308","image-keyboard-response","157","279485","0.0-7.0-46.1","1","1","2024-03-17 22:53:12","c33429291dc7a384f95165972fddd116","171.66.13.59","Mozilla/5.0 (Macintosh; Intel Mac OS X 10_15_7) AppleWebKit/537.36 (KHTML, like Gecko) Chrome/121.0.0.0 Safari/537.36","Macintosh","Chrome","121.0.0.0","OS X","10_15_7","null","en-US,en;q=0.9","","","","","img/blue.png","f","","","","","","","","","","","","","","","response","f","true",""
"","null","html-keyboard-response","158","280452","0.0-7.0-47.1","1","1","2024-03-17 22:53:12","c33429291dc7a384f95165972fddd116","171.66.13.59","Mozilla/5.0 (Macintosh; Intel Mac OS X 10_15_7) AppleWebKit/537.36 (KHTML, like Gecko) Chrome/121.0.0.0 Safari/537.36","Macintosh","Chrome","121.0.0.0","OS X","10_15_7","null","en-US,en;q=0.9","","","","","<div style=""font-size:60px;"">+</div>","null","","","","","","","","","","","","","","","fixation","","","958"
"","null","image-keyboard-response","159","281464","0.0-7.0-48.1","1","1","2024-03-17 22:53:12","c33429291dc7a384f95165972fddd116","171.66.13.59","Mozilla/5.0 (Macintosh; Intel Mac OS X 10_15_7) AppleWebKit/537.36 (KHTML, like Gecko) Chrome/121.0.0.0 Safari/537.36","Macintosh","Chrome","121.0.0.0","OS X","10_15_7","null","en-US,en;q=0.9","","","","","img/orange.png","null","","","","","","","","","","","","","","","response","null","true",""
"","null","html-keyboard-response","160","282501","0.0-7.0-49.1","1","1","2024-03-17 22:53:12","c33429291dc7a384f95165972fddd116","171.66.13.59","Mozilla/5.0 (Macintosh; Intel Mac OS X 10_15_7) AppleWebKit/537.36 (KHTML, like Gecko) Chrome/121.0.0.0 Safari/537.36","Macintosh","Chrome","121.0.0.0","OS X","10_15_7","null","en-US,en;q=0.9","","","","","<div style=""font-size:60px;"">+</div>","null","","","","","","","","","","","","","","","fixation","","","1028"
"","372","image-keyboard-response","161","282880","0.0-7.0-50.1","1","1","2024-03-17 22:53:12","c33429291dc7a384f95165972fddd116","171.66.13.59","Mozilla/5.0 (Macintosh; Intel Mac OS X 10_15_7) AppleWebKit/537.36 (KHTML, like Gecko) Chrome/121.0.0.0 Safari/537.36","Macintosh","Chrome","121.0.0.0","OS X","10_15_7","null","en-US,en;q=0.9","","","","","img/blue.png","f","","","","","","","","","","","","","","","response","f","true",""
"","null","html-keyboard-response","162","284009","0.0-7.0-51.1","1","1","2024-03-17 22:53:12","c33429291dc7a384f95165972fddd116","171.66.13.59","Mozilla/5.0 (Macintosh; Intel Mac OS X 10_15_7) AppleWebKit/537.36 (KHTML, like Gecko) Chrome/121.0.0.0 Safari/537.36","Macintosh","Chrome","121.0.0.0","OS X","10_15_7","null","en-US,en;q=0.9","","","","","<div style=""font-size:60px;"">+</div>","null","","","","","","","","","","","","","","","fixation","","","1118"
"","311","image-keyboard-response","163","284328","0.0-7.0-52.1","1","1","2024-03-17 22:53:12","c33429291dc7a384f95165972fddd116","171.66.13.59","Mozilla/5.0 (Macintosh; Intel Mac OS X 10_15_7) AppleWebKit/537.36 (KHTML, like Gecko) Chrome/121.0.0.0 Safari/537.36","Macintosh","Chrome","121.0.0.0","OS X","10_15_7","null","en-US,en;q=0.9","","","","","img/blue.png","f","","","","","","","","","","","","","","","response","f","true",""
"","null","html-keyboard-response","164","285229","0.0-7.0-53.1","1","1","2024-03-17 22:53:12","c33429291dc7a384f95165972fddd116","171.66.13.59","Mozilla/5.0 (Macintosh; Intel Mac OS X 10_15_7) AppleWebKit/537.36 (KHTML, like Gecko) Chrome/121.0.0.0 Safari/537.36","Macintosh","Chrome","121.0.0.0","OS X","10_15_7","null","en-US,en;q=0.9","","","","","<div style=""font-size:60px;"">+</div>","null","","","","","","","","","","","","","","","fixation","","","892"
"","387","image-keyboard-response","165","285620","0.0-7.0-54.1","1","1","2024-03-17 22:53:12","c33429291dc7a384f95165972fddd116","171.66.13.59","Mozilla/5.0 (Macintosh; Intel Mac OS X 10_15_7) AppleWebKit/537.36 (KHTML, like Gecko) Chrome/121.0.0.0 Safari/537.36","Macintosh","Chrome","121.0.0.0","OS X","10_15_7","null","en-US,en;q=0.9","","","","","img/blue.png","f","","","","","","","","","","","","","","","response","f","true",""
"","null","html-keyboard-response","166","286683","0.0-7.0-55.1","1","1","2024-03-17 22:53:12","c33429291dc7a384f95165972fddd116","171.66.13.59","Mozilla/5.0 (Macintosh; Intel Mac OS X 10_15_7) AppleWebKit/537.36 (KHTML, like Gecko) Chrome/121.0.0.0 Safari/537.36","Macintosh","Chrome","121.0.0.0","OS X","10_15_7","null","en-US,en;q=0.9","","","","","<div style=""font-size:60px;"">+</div>","null","","","","","","","","","","","","","","","fixation","","","1053"
"","292","image-keyboard-response","167","286983","0.0-7.0-56.1","1","1","2024-03-17 22:53:12","c33429291dc7a384f95165972fddd116","171.66.13.59","Mozilla/5.0 (Macintosh; Intel Mac OS X 10_15_7) AppleWebKit/537.36 (KHTML, like Gecko) Chrome/121.0.0.0 Safari/537.36","Macintosh","Chrome","121.0.0.0","OS X","10_15_7","null","en-US,en;q=0.9","","","","","img/blue.png","f","","","","","","","","","","","","","","","response","f","true",""
"","null","html-keyboard-response","168","288074","0.0-7.0-57.1","1","1","2024-03-17 22:53:12","c33429291dc7a384f95165972fddd116","171.66.13.59","Mozilla/5.0 (Macintosh; Intel Mac OS X 10_15_7) AppleWebKit/537.36 (KHTML, like Gecko) Chrome/121.0.0.0 Safari/537.36","Macintosh","Chrome","121.0.0.0","OS X","10_15_7","null","en-US,en;q=0.9","","","","","<div style=""font-size:60px;"">+</div>","null","","","","","","","","","","","","","","","fixation","","","1083"
"","null","image-keyboard-response","169","290085","0.0-7.0-58.1","1","1","2024-03-17 22:53:12","c33429291dc7a384f95165972fddd116","171.66.13.59","Mozilla/5.0 (Macintosh; Intel Mac OS X 10_15_7) AppleWebKit/537.36 (KHTML, like Gecko) Chrome/121.0.0.0 Safari/537.36","Macintosh","Chrome","121.0.0.0","OS X","10_15_7","null","en-US,en;q=0.9","","","","","img/orange.png","null","","","","","","","","","","","","","","","response","null","true",""
"","null","html-keyboard-response","170","291185","0.0-7.0-59.1","1","1","2024-03-17 22:53:12","c33429291dc7a384f95165972fddd116","171.66.13.59","Mozilla/5.0 (Macintosh; Intel Mac OS X 10_15_7) AppleWebKit/537.36 (KHTML, like Gecko) Chrome/121.0.0.0 Safari/537.36","Macintosh","Chrome","121.0.0.0","OS X","10_15_7","null","en-US,en;q=0.9","","","","","<div style=""font-size:60px;"">+</div>","null","","","","","","","","","","","","","","","fixation","","","1092"
"","5525","html-keyboard-response","171","296719","0.0-8.0","1","1","2024-03-17 22:53:12","c33429291dc7a384f95165972fddd116","171.66.13.59","Mozilla/5.0 (Macintosh; Intel Mac OS X 10_15_7) AppleWebKit/537.36 (KHTML, like Gecko) Chrome/121.0.0.0 Safari/537.36","Macintosh","Chrome","121.0.0.0","OS X","10_15_7","null","en-US,en;q=0.9","","","","","<p>You responded correctly on 95% of the trials.</p>
        <p>Your average response time was 273ms.</p>
        <p>Press any key to complete the experiment. Thank you!</p>","f","","","","","","","","","","","","","","","","","",""
"","1108","html-keyboard-response","172","297831","0.0-9.0","1","1","2024-03-17 22:53:12","c33429291dc7a384f95165972fddd116","171.66.13.59","Mozilla/5.0 (Macintosh; Intel Mac OS X 10_15_7) AppleWebKit/537.36 (KHTML, like Gecko) Chrome/121.0.0.0 Safari/537.36","Macintosh","Chrome","121.0.0.0","OS X","10_15_7","null","en-US,en;q=0.9","","","","","<p>Great work! This experiment is over now. Please press any button.</p>","f","","","","","","","","","","","","","","","","","",""
