"view_history","rt","trial_type","trial_index","time_elapsed","internal_node_id","run_id","condition","recorded_at","source_code_version","ip","user_agent","device","browser","browser_version","platform","platform_version","referer","accept_language","fbclid","min_width","min_height","inner_width","inner_height","stimulus","response","sequence","sequence_length","tile_duration","backwards","responses","score_an","score_pc","score_ls","event_history","success","timeout","failed_images","failed_audio","failed_video","task","correct_response","correct","fixation_time"
"[{""page_index"":0,""viewing_time"":1458}]","1458","instructions","0","1465","0.0-0.0","3","1","2024-03-18 04:52:12","c33429291dc7a384f95165972fddd116","128.12.122.24","Mozilla/5.0 (Windows NT 10.0; Win64; x64; rv:123.0) Gecko/20100101 Firefox/123.0","","Firefox","123.0","Windows","10.0","https://l.facebook.com/","en-US,en;q=0.5","IwAR0CRFrU8HfhHl5FhHk_2wqJwZKP5fdberTT2fqdS2NQiCQZhIYD1chETlg","","","","","","","","","","","","","","","","","","","","","","","",""
"[{""page_index"":0,""viewing_time"":1227},{""page_index"":1,""viewing_time"":5371},{""page_index"":2,""viewing_time"":3701}]","10299","instructions","1","11771","0.0-1.0","3","1","2024-03-18 04:52:12","c33429291dc7a384f95165972fddd116","128.12.122.24","Mozilla/5.0 (Windows NT 10.0; Win64; x64; rv:123.0) Gecko/20100101 Firefox/123.0","","Firefox","123.0","Windows","10.0","https://l.facebook.com/","en-US,en;q=0.5","IwAR0CRFrU8HfhHl5FhHk_2wqJwZKP5fdberTT2fqdS2NQiCQZhIYD1chETlg","","","","","","","","","","","","","","","","","","","","","","","",""
"","","screen-check","2","11773","0.0-2.0-0.0","3","1","2024-03-18 04:52:12","c33429291dc7a384f95165972fddd116","128.12.122.24","Mozilla/5.0 (Windows NT 10.0; Win64; x64; rv:123.0) Gecko/20100101 Firefox/123.0","","Firefox","123.0","Windows","10.0","https://l.facebook.com/","en-US,en;q=0.5","IwAR0CRFrU8HfhHl5FhHk_2wqJwZKP5fdberTT2fqdS2NQiCQZhIYD1chETlg","258","364","1280","559","","","","","","","","","","","","","","","","","","","",""
"","null","html-keyboard-response","3","12282","0.0-2.0-1.0","3","1","2024-03-18 04:52:12","c33429291dc7a384f95165972fddd116","128.12.122.24","Mozilla/5.0 (Windows NT 10.0; Win64; x64; rv:123.0) Gecko/20100101 Firefox/123.0","","Firefox","123.0","Windows","10.0","https://l.facebook.com/","en-US,en;q=0.5","IwAR0CRFrU8HfhHl5FhHk_2wqJwZKP5fdberTT2fqdS2NQiCQZhIYD1chETlg","","","","","<p style=""font-size: 48px;"">+</p>","null","","","","","","","","","","","","","","","","","",""
"","5338","spatial-recall","4","21937","0.0-2.0-2.0","3","1","2024-03-18 04:52:12","c33429291dc7a384f95165972fddd116","128.12.122.24","Mozilla/5.0 (Windows NT 10.0; Win64; x64; rv:123.0) Gecko/20100101 Firefox/123.0","","Firefox","123.0","Windows","10.0","https://l.facebook.com/","en-US,en;q=0.5","IwAR0CRFrU8HfhHl5FhHk_2wqJwZKP5fdberTT2fqdS2NQiCQZhIYD1chETlg","","","","","","","[6,14,9,4]","4","701","false","[6,14,9,4]","1","4","4","[{""button"":6,""time"":1468},{""button"":14,""time"":2404},{""button"":9,""time"":3381},{""button"":4,""time"":4209},{""button"":""submit"",""time"":5338}]","","","","","","","","",""
"","","screen-check","5","21941","0.0-2.0-0.1","3","1","2024-03-18 04:52:12","c33429291dc7a384f95165972fddd116","128.12.122.24","Mozilla/5.0 (Windows NT 10.0; Win64; x64; rv:123.0) Gecko/20100101 Firefox/123.0","","Firefox","123.0","Windows","10.0","https://l.facebook.com/","en-US,en;q=0.5","IwAR0CRFrU8HfhHl5FhHk_2wqJwZKP5fdberTT2fqdS2NQiCQZhIYD1chETlg","258","364","1280","559","","","","","","","","","","","","","","","","","","","",""
"","null","html-keyboard-response","6","22448","0.0-2.0-1.1","3","1","2024-03-18 04:52:12","c33429291dc7a384f95165972fddd116","128.12.122.24","Mozilla/5.0 (Windows NT 10.0; Win64; x64; rv:123.0) Gecko/20100101 Firefox/123.0","","Firefox","123.0","Windows","10.0","https://l.facebook.com/","en-US,en;q=0.5","IwAR0CRFrU8HfhHl5FhHk_2wqJwZKP5fdberTT2fqdS2NQiCQZhIYD1chETlg","","","","","<p style=""font-size: 48px;"">+</p>","null","","","","","","","","","","","","","","","","","",""
"","4671","spatial-recall","7","31441","0.0-2.0-2.1","3","1","2024-03-18 04:52:12","c33429291dc7a384f95165972fddd116","128.12.122.24","Mozilla/5.0 (Windows NT 10.0; Win64; x64; rv:123.0) Gecko/20100101 Firefox/123.0","","Firefox","123.0","Windows","10.0","https://l.facebook.com/","en-US,en;q=0.5","IwAR0CRFrU8HfhHl5FhHk_2wqJwZKP5fdberTT2fqdS2NQiCQZhIYD1chETlg","","","","","","","[11,3,15,5]","4","702","false","[3,15,11,5]","0","1","3","[{""button"":3,""time"":917},{""button"":15,""time"":2013},{""button"":11,""time"":2805},{""button"":5,""time"":3704},{""button"":""submit"",""time"":4671}]","","","","","","","","",""
"","","screen-check","8","31444","0.0-2.0-0.2","3","1","2024-03-18 04:52:12","c33429291dc7a384f95165972fddd116","128.12.122.24","Mozilla/5.0 (Windows NT 10.0; Win64; x64; rv:123.0) Gecko/20100101 Firefox/123.0","","Firefox","123.0","Windows","10.0","https://l.facebook.com/","en-US,en;q=0.5","IwAR0CRFrU8HfhHl5FhHk_2wqJwZKP5fdberTT2fqdS2NQiCQZhIYD1chETlg","258","364","1280","559","","","","","","","","","","","","","","","","","","","",""
"","null","html-keyboard-response","9","31951","0.0-2.0-1.2","3","1","2024-03-18 04:52:12","c33429291dc7a384f95165972fddd116","128.12.122.24","Mozilla/5.0 (Windows NT 10.0; Win64; x64; rv:123.0) Gecko/20100101 Firefox/123.0","","Firefox","123.0","Windows","10.0","https://l.facebook.com/","en-US,en;q=0.5","IwAR0CRFrU8HfhHl5FhHk_2wqJwZKP5fdberTT2fqdS2NQiCQZhIYD1chETlg","","","","","<p style=""font-size: 48px;"">+</p>","null","","","","","","","","","","","","","","","","","",""
"","5493","spatial-recall","10","41943","0.0-2.0-2.2","3","1","2024-03-18 04:52:12","c33429291dc7a384f95165972fddd116","128.12.122.24","Mozilla/5.0 (Windows NT 10.0; Win64; x64; rv:123.0) Gecko/20100101 Firefox/123.0","","Firefox","123.0","Windows","10.0","https://l.facebook.com/","en-US,en;q=0.5","IwAR0CRFrU8HfhHl5FhHk_2wqJwZKP5fdberTT2fqdS2NQiCQZhIYD1chETlg","","","","","","","[3,15,1,8]","4","747","false","[3,15,1,8]","1","4","4","[{""button"":3,""time"":1615},{""button"":15,""time"":2622},{""button"":1,""time"":3541},{""button"":8,""time"":4478},{""button"":""submit"",""time"":5493}]","","","","","","","","",""
"","","screen-check","11","41947","0.0-2.0-0.3","3","1","2024-03-18 04:52:12","c33429291dc7a384f95165972fddd116","128.12.122.24","Mozilla/5.0 (Windows NT 10.0; Win64; x64; rv:123.0) Gecko/20100101 Firefox/123.0","","Firefox","123.0","Windows","10.0","https://l.facebook.com/","en-US,en;q=0.5","IwAR0CRFrU8HfhHl5FhHk_2wqJwZKP5fdberTT2fqdS2NQiCQZhIYD1chETlg","258","364","1280","559","","","","","","","","","","","","","","","","","","","",""
"","null","html-keyboard-response","12","42450","0.0-2.0-1.3","3","1","2024-03-18 04:52:12","c33429291dc7a384f95165972fddd116","128.12.122.24","Mozilla/5.0 (Windows NT 10.0; Win64; x64; rv:123.0) Gecko/20100101 Firefox/123.0","","Firefox","123.0","Windows","10.0","https://l.facebook.com/","en-US,en;q=0.5","IwAR0CRFrU8HfhHl5FhHk_2wqJwZKP5fdberTT2fqdS2NQiCQZhIYD1chETlg","","","","","<p style=""font-size: 48px;"">+</p>","null","","","","","","","","","","","","","","","","","",""
"","5603","spatial-recall","13","52551","0.0-2.0-2.3","3","1","2024-03-18 04:52:12","c33429291dc7a384f95165972fddd116","128.12.122.24","Mozilla/5.0 (Windows NT 10.0; Win64; x64; rv:123.0) Gecko/20100101 Firefox/123.0","","Firefox","123.0","Windows","10.0","https://l.facebook.com/","en-US,en;q=0.5","IwAR0CRFrU8HfhHl5FhHk_2wqJwZKP5fdberTT2fqdS2NQiCQZhIYD1chETlg","","","","","","","[13,8,4,1]","4","744","false","[13,8,4,1]","1","4","4","[{""button"":13,""time"":1147},{""button"":8,""time"":2162},{""button"":4,""time"":3057},{""button"":1,""time"":4027},{""button"":""submit"",""time"":5603}]","","","","","","","","",""
"","","screen-check","14","52556","0.0-2.0-0.4","3","1","2024-03-18 04:52:12","c33429291dc7a384f95165972fddd116","128.12.122.24","Mozilla/5.0 (Windows NT 10.0; Win64; x64; rv:123.0) Gecko/20100101 Firefox/123.0","","Firefox","123.0","Windows","10.0","https://l.facebook.com/","en-US,en;q=0.5","IwAR0CRFrU8HfhHl5FhHk_2wqJwZKP5fdberTT2fqdS2NQiCQZhIYD1chETlg","258","364","1280","559","","","","","","","","","","","","","","","","","","","",""
"","null","html-keyboard-response","15","53071","0.0-2.0-1.4","3","1","2024-03-18 04:52:12","c33429291dc7a384f95165972fddd116","128.12.122.24","Mozilla/5.0 (Windows NT 10.0; Win64; x64; rv:123.0) Gecko/20100101 Firefox/123.0","","Firefox","123.0","Windows","10.0","https://l.facebook.com/","en-US,en;q=0.5","IwAR0CRFrU8HfhHl5FhHk_2wqJwZKP5fdberTT2fqdS2NQiCQZhIYD1chETlg","","","","","<p style=""font-size: 48px;"">+</p>","null","","","","","","","","","","","","","","","","","",""
"","5052","spatial-recall","16","62623","0.0-2.0-2.4","3","1","2024-03-18 04:52:12","c33429291dc7a384f95165972fddd116","128.12.122.24","Mozilla/5.0 (Windows NT 10.0; Win64; x64; rv:123.0) Gecko/20100101 Firefox/123.0","","Firefox","123.0","Windows","10.0","https://l.facebook.com/","en-US,en;q=0.5","IwAR0CRFrU8HfhHl5FhHk_2wqJwZKP5fdberTT2fqdS2NQiCQZhIYD1chETlg","","","","","","","[6,15,13,11]","4","747","false","[6,15,13,11]","1","4","4","[{""button"":6,""time"":1364},{""button"":15,""time"":2330},{""button"":13,""time"":3241},{""button"":11,""time"":4082},{""button"":""submit"",""time"":5052}]","","","","","","","","",""
"","","screen-check","17","62628","0.0-2.0-0.5","3","1","2024-03-18 04:52:12","c33429291dc7a384f95165972fddd116","128.12.122.24","Mozilla/5.0 (Windows NT 10.0; Win64; x64; rv:123.0) Gecko/20100101 Firefox/123.0","","Firefox","123.0","Windows","10.0","https://l.facebook.com/","en-US,en;q=0.5","IwAR0CRFrU8HfhHl5FhHk_2wqJwZKP5fdberTT2fqdS2NQiCQZhIYD1chETlg","258","364","1280","559","","","","","","","","","","","","","","","","","","","",""
"","null","html-keyboard-response","18","63145","0.0-2.0-1.5","3","1","2024-03-18 04:52:12","c33429291dc7a384f95165972fddd116","128.12.122.24","Mozilla/5.0 (Windows NT 10.0; Win64; x64; rv:123.0) Gecko/20100101 Firefox/123.0","","Firefox","123.0","Windows","10.0","https://l.facebook.com/","en-US,en;q=0.5","IwAR0CRFrU8HfhHl5FhHk_2wqJwZKP5fdberTT2fqdS2NQiCQZhIYD1chETlg","","","","","<p style=""font-size: 48px;"">+</p>","null","","","","","","","","","","","","","","","","","",""
"","4884","spatial-recall","19","72158","0.0-2.0-2.5","3","1","2024-03-18 04:52:12","c33429291dc7a384f95165972fddd116","128.12.122.24","Mozilla/5.0 (Windows NT 10.0; Win64; x64; rv:123.0) Gecko/20100101 Firefox/123.0","","Firefox","123.0","Windows","10.0","https://l.facebook.com/","en-US,en;q=0.5","IwAR0CRFrU8HfhHl5FhHk_2wqJwZKP5fdberTT2fqdS2NQiCQZhIYD1chETlg","","","","","","","[1,12,8,2]","4","653","false","[1,12,8,2]","1","4","4","[{""button"":1,""time"":1014},{""button"":12,""time"":1911},{""button"":8,""time"":2776},{""button"":2,""time"":3742},{""button"":""submit"",""time"":4884}]","","","","","","","","",""
"","","screen-check","20","72171","0.0-2.0-0.6","3","1","2024-03-18 04:52:12","c33429291dc7a384f95165972fddd116","128.12.122.24","Mozilla/5.0 (Windows NT 10.0; Win64; x64; rv:123.0) Gecko/20100101 Firefox/123.0","","Firefox","123.0","Windows","10.0","https://l.facebook.com/","en-US,en;q=0.5","IwAR0CRFrU8HfhHl5FhHk_2wqJwZKP5fdberTT2fqdS2NQiCQZhIYD1chETlg","258","364","1280","559","","","","","","","","","","","","","","","","","","","",""
"","null","html-keyboard-response","21","72686","0.0-2.0-1.6","3","1","2024-03-18 04:52:12","c33429291dc7a384f95165972fddd116","128.12.122.24","Mozilla/5.0 (Windows NT 10.0; Win64; x64; rv:123.0) Gecko/20100101 Firefox/123.0","","Firefox","123.0","Windows","10.0","https://l.facebook.com/","en-US,en;q=0.5","IwAR0CRFrU8HfhHl5FhHk_2wqJwZKP5fdberTT2fqdS2NQiCQZhIYD1chETlg","","","","","<p style=""font-size: 48px;"">+</p>","null","","","","","","","","","","","","","","","","","",""
"","4869","spatial-recall","22","81677","0.0-2.0-2.6","3","1","2024-03-18 04:52:12","c33429291dc7a384f95165972fddd116","128.12.122.24","Mozilla/5.0 (Windows NT 10.0; Win64; x64; rv:123.0) Gecko/20100101 Firefox/123.0","","Firefox","123.0","Windows","10.0","https://l.facebook.com/","en-US,en;q=0.5","IwAR0CRFrU8HfhHl5FhHk_2wqJwZKP5fdberTT2fqdS2NQiCQZhIYD1chETlg","","","","","","","[2,15,5,11]","4","652","false","[2,15,5,11]","1","4","4","[{""button"":2,""time"":978},{""button"":15,""time"":2018},{""button"":5,""time"":2939},{""button"":11,""time"":3816},{""button"":""submit"",""time"":4869}]","","","","","","","","",""
"","","screen-check","23","81680","0.0-2.0-0.7","3","1","2024-03-18 04:52:12","c33429291dc7a384f95165972fddd116","128.12.122.24","Mozilla/5.0 (Windows NT 10.0; Win64; x64; rv:123.0) Gecko/20100101 Firefox/123.0","","Firefox","123.0","Windows","10.0","https://l.facebook.com/","en-US,en;q=0.5","IwAR0CRFrU8HfhHl5FhHk_2wqJwZKP5fdberTT2fqdS2NQiCQZhIYD1chETlg","258","364","1280","559","","","","","","","","","","","","","","","","","","","",""
"","null","html-keyboard-response","24","82193","0.0-2.0-1.7","3","1","2024-03-18 04:52:12","c33429291dc7a384f95165972fddd116","128.12.122.24","Mozilla/5.0 (Windows NT 10.0; Win64; x64; rv:123.0) Gecko/20100101 Firefox/123.0","","Firefox","123.0","Windows","10.0","https://l.facebook.com/","en-US,en;q=0.5","IwAR0CRFrU8HfhHl5FhHk_2wqJwZKP5fdberTT2fqdS2NQiCQZhIYD1chETlg","","","","","<p style=""font-size: 48px;"">+</p>","null","","","","","","","","","","","","","","","","","",""
"","4829","spatial-recall","25","91304","0.0-2.0-2.7","3","1","2024-03-18 04:52:12","c33429291dc7a384f95165972fddd116","128.12.122.24","Mozilla/5.0 (Windows NT 10.0; Win64; x64; rv:123.0) Gecko/20100101 Firefox/123.0","","Firefox","123.0","Windows","10.0","https://l.facebook.com/","en-US,en;q=0.5","IwAR0CRFrU8HfhHl5FhHk_2wqJwZKP5fdberTT2fqdS2NQiCQZhIYD1chETlg","","","","","","","[6,13,4,1]","4","691","false","[6,13,4,1]","1","4","4","[{""button"":6,""time"":1099},{""button"":13,""time"":2069},{""button"":4,""time"":3008},{""button"":1,""time"":3843},{""button"":""submit"",""time"":4829}]","","","","","","","","",""
"","","screen-check","26","91306","0.0-2.0-0.8","3","1","2024-03-18 04:52:12","c33429291dc7a384f95165972fddd116","128.12.122.24","Mozilla/5.0 (Windows NT 10.0; Win64; x64; rv:123.0) Gecko/20100101 Firefox/123.0","","Firefox","123.0","Windows","10.0","https://l.facebook.com/","en-US,en;q=0.5","IwAR0CRFrU8HfhHl5FhHk_2wqJwZKP5fdberTT2fqdS2NQiCQZhIYD1chETlg","258","364","1280","559","","","","","","","","","","","","","","","","","","","",""
"","null","html-keyboard-response","27","91819","0.0-2.0-1.8","3","1","2024-03-18 04:52:12","c33429291dc7a384f95165972fddd116","128.12.122.24","Mozilla/5.0 (Windows NT 10.0; Win64; x64; rv:123.0) Gecko/20100101 Firefox/123.0","","Firefox","123.0","Windows","10.0","https://l.facebook.com/","en-US,en;q=0.5","IwAR0CRFrU8HfhHl5FhHk_2wqJwZKP5fdberTT2fqdS2NQiCQZhIYD1chETlg","","","","","<p style=""font-size: 48px;"">+</p>","null","","","","","","","","","","","","","","","","","",""
"","4463","spatial-recall","28","100258","0.0-2.0-2.8","3","1","2024-03-18 04:52:12","c33429291dc7a384f95165972fddd116","128.12.122.24","Mozilla/5.0 (Windows NT 10.0; Win64; x64; rv:123.0) Gecko/20100101 Firefox/123.0","","Firefox","123.0","Windows","10.0","https://l.facebook.com/","en-US,en;q=0.5","IwAR0CRFrU8HfhHl5FhHk_2wqJwZKP5fdberTT2fqdS2NQiCQZhIYD1chETlg","","","","","","","[5,11,12,8]","4","617","false","[5,11,12,8]","1","4","4","[{""button"":5,""time"":865},{""button"":11,""time"":1688},{""button"":12,""time"":2692},{""button"":8,""time"":3534},{""button"":""submit"",""time"":4463}]","","","","","","","","",""
"","","screen-check","29","100266","0.0-2.0-0.9","3","1","2024-03-18 04:52:12","c33429291dc7a384f95165972fddd116","128.12.122.24","Mozilla/5.0 (Windows NT 10.0; Win64; x64; rv:123.0) Gecko/20100101 Firefox/123.0","","Firefox","123.0","Windows","10.0","https://l.facebook.com/","en-US,en;q=0.5","IwAR0CRFrU8HfhHl5FhHk_2wqJwZKP5fdberTT2fqdS2NQiCQZhIYD1chETlg","258","364","1280","559","","","","","","","","","","","","","","","","","","","",""
"","null","html-keyboard-response","30","100783","0.0-2.0-1.9","3","1","2024-03-18 04:52:12","c33429291dc7a384f95165972fddd116","128.12.122.24","Mozilla/5.0 (Windows NT 10.0; Win64; x64; rv:123.0) Gecko/20100101 Firefox/123.0","","Firefox","123.0","Windows","10.0","https://l.facebook.com/","en-US,en;q=0.5","IwAR0CRFrU8HfhHl5FhHk_2wqJwZKP5fdberTT2fqdS2NQiCQZhIYD1chETlg","","","","","<p style=""font-size: 48px;"">+</p>","null","","","","","","","","","","","","","","","","","",""
"","4441","spatial-recall","31","109205","0.0-2.0-2.9","3","1","2024-03-18 04:52:12","c33429291dc7a384f95165972fddd116","128.12.122.24","Mozilla/5.0 (Windows NT 10.0; Win64; x64; rv:123.0) Gecko/20100101 Firefox/123.0","","Firefox","123.0","Windows","10.0","https://l.facebook.com/","en-US,en;q=0.5","IwAR0CRFrU8HfhHl5FhHk_2wqJwZKP5fdberTT2fqdS2NQiCQZhIYD1chETlg","","","","","","","[1,7,5,9]","4","617","false","[1,7,5,9]","1","4","4","[{""button"":1,""time"":888},{""button"":7,""time"":1702},{""button"":5,""time"":2549},{""button"":9,""time"":3393},{""button"":""submit"",""time"":4441}]","","","","","","","","",""
"","","screen-check","32","109210","0.0-2.0-0.10","3","1","2024-03-18 04:52:12","c33429291dc7a384f95165972fddd116","128.12.122.24","Mozilla/5.0 (Windows NT 10.0; Win64; x64; rv:123.0) Gecko/20100101 Firefox/123.0","","Firefox","123.0","Windows","10.0","https://l.facebook.com/","en-US,en;q=0.5","IwAR0CRFrU8HfhHl5FhHk_2wqJwZKP5fdberTT2fqdS2NQiCQZhIYD1chETlg","258","364","1280","559","","","","","","","","","","","","","","","","","","","",""
"","null","html-keyboard-response","33","109725","0.0-2.0-1.10","3","1","2024-03-18 04:52:12","c33429291dc7a384f95165972fddd116","128.12.122.24","Mozilla/5.0 (Windows NT 10.0; Win64; x64; rv:123.0) Gecko/20100101 Firefox/123.0","","Firefox","123.0","Windows","10.0","https://l.facebook.com/","en-US,en;q=0.5","IwAR0CRFrU8HfhHl5FhHk_2wqJwZKP5fdberTT2fqdS2NQiCQZhIYD1chETlg","","","","","<p style=""font-size: 48px;"">+</p>","null","","","","","","","","","","","","","","","","","",""
"","4856","spatial-recall","34","118454","0.0-2.0-2.10","3","1","2024-03-18 04:52:12","c33429291dc7a384f95165972fddd116","128.12.122.24","Mozilla/5.0 (Windows NT 10.0; Win64; x64; rv:123.0) Gecko/20100101 Firefox/123.0","","Firefox","123.0","Windows","10.0","https://l.facebook.com/","en-US,en;q=0.5","IwAR0CRFrU8HfhHl5FhHk_2wqJwZKP5fdberTT2fqdS2NQiCQZhIYD1chETlg","","","","","","","[7,13,4,3]","4","590","false","[7,13,4,3]","1","4","4","[{""button"":7,""time"":895},{""button"":13,""time"":1855},{""button"":4,""time"":2862},{""button"":3,""time"":3784},{""button"":""submit"",""time"":4856}]","","","","","","","","",""
"","","screen-check","35","118459","0.0-2.0-0.11","3","1","2024-03-18 04:52:12","c33429291dc7a384f95165972fddd116","128.12.122.24","Mozilla/5.0 (Windows NT 10.0; Win64; x64; rv:123.0) Gecko/20100101 Firefox/123.0","","Firefox","123.0","Windows","10.0","https://l.facebook.com/","en-US,en;q=0.5","IwAR0CRFrU8HfhHl5FhHk_2wqJwZKP5fdberTT2fqdS2NQiCQZhIYD1chETlg","258","364","1280","559","","","","","","","","","","","","","","","","","","","",""
"","null","html-keyboard-response","36","118964","0.0-2.0-1.11","3","1","2024-03-18 04:52:12","c33429291dc7a384f95165972fddd116","128.12.122.24","Mozilla/5.0 (Windows NT 10.0; Win64; x64; rv:123.0) Gecko/20100101 Firefox/123.0","","Firefox","123.0","Windows","10.0","https://l.facebook.com/","en-US,en;q=0.5","IwAR0CRFrU8HfhHl5FhHk_2wqJwZKP5fdberTT2fqdS2NQiCQZhIYD1chETlg","","","","","<p style=""font-size: 48px;"">+</p>","null","","","","","","","","","","","","","","","","","",""
"","4804","spatial-recall","37","127420","0.0-2.0-2.11","3","1","2024-03-18 04:52:12","c33429291dc7a384f95165972fddd116","128.12.122.24","Mozilla/5.0 (Windows NT 10.0; Win64; x64; rv:123.0) Gecko/20100101 Firefox/123.0","","Firefox","123.0","Windows","10.0","https://l.facebook.com/","en-US,en;q=0.5","IwAR0CRFrU8HfhHl5FhHk_2wqJwZKP5fdberTT2fqdS2NQiCQZhIYD1chETlg","","","","","","","[12,7,11,14]","4","534","false","[12,7,11,14]","1","4","4","[{""button"":12,""time"":980},{""button"":7,""time"":2041},{""button"":11,""time"":2921},{""button"":14,""time"":3775},{""button"":""submit"",""time"":4804}]","","","","","","","","",""
"","","screen-check","38","127425","0.0-2.0-0.12","3","1","2024-03-18 04:52:12","c33429291dc7a384f95165972fddd116","128.12.122.24","Mozilla/5.0 (Windows NT 10.0; Win64; x64; rv:123.0) Gecko/20100101 Firefox/123.0","","Firefox","123.0","Windows","10.0","https://l.facebook.com/","en-US,en;q=0.5","IwAR0CRFrU8HfhHl5FhHk_2wqJwZKP5fdberTT2fqdS2NQiCQZhIYD1chETlg","258","364","1280","559","","","","","","","","","","","","","","","","","","","",""
"","null","html-keyboard-response","39","127946","0.0-2.0-1.12","3","1","2024-03-18 04:52:12","c33429291dc7a384f95165972fddd116","128.12.122.24","Mozilla/5.0 (Windows NT 10.0; Win64; x64; rv:123.0) Gecko/20100101 Firefox/123.0","","Firefox","123.0","Windows","10.0","https://l.facebook.com/","en-US,en;q=0.5","IwAR0CRFrU8HfhHl5FhHk_2wqJwZKP5fdberTT2fqdS2NQiCQZhIYD1chETlg","","","","","<p style=""font-size: 48px;"">+</p>","null","","","","","","","","","","","","","","","","","",""
"","4425","spatial-recall","40","136250","0.0-2.0-2.12","3","1","2024-03-18 04:52:12","c33429291dc7a384f95165972fddd116","128.12.122.24","Mozilla/5.0 (Windows NT 10.0; Win64; x64; rv:123.0) Gecko/20100101 Firefox/123.0","","Firefox","123.0","Windows","10.0","https://l.facebook.com/","en-US,en;q=0.5","IwAR0CRFrU8HfhHl5FhHk_2wqJwZKP5fdberTT2fqdS2NQiCQZhIYD1chETlg","","","","","","","[14,15,6,3]","4","591","false","[14,15,6,3]","1","4","4","[{""button"":14,""time"":865},{""button"":15,""time"":1727},{""button"":6,""time"":2592},{""button"":3,""time"":3344},{""button"":""submit"",""time"":4425}]","","","","","","","","",""
"","","screen-check","41","136263","0.0-2.0-0.13","3","1","2024-03-18 04:52:12","c33429291dc7a384f95165972fddd116","128.12.122.24","Mozilla/5.0 (Windows NT 10.0; Win64; x64; rv:123.0) Gecko/20100101 Firefox/123.0","","Firefox","123.0","Windows","10.0","https://l.facebook.com/","en-US,en;q=0.5","IwAR0CRFrU8HfhHl5FhHk_2wqJwZKP5fdberTT2fqdS2NQiCQZhIYD1chETlg","258","364","1280","559","","","","","","","","","","","","","","","","","","","",""
"","null","html-keyboard-response","42","136776","0.0-2.0-1.13","3","1","2024-03-18 04:52:12","c33429291dc7a384f95165972fddd116","128.12.122.24","Mozilla/5.0 (Windows NT 10.0; Win64; x64; rv:123.0) Gecko/20100101 Firefox/123.0","","Firefox","123.0","Windows","10.0","https://l.facebook.com/","en-US,en;q=0.5","IwAR0CRFrU8HfhHl5FhHk_2wqJwZKP5fdberTT2fqdS2NQiCQZhIYD1chETlg","","","","","<p style=""font-size: 48px;"">+</p>","null","","","","","","","","","","","","","","","","","",""
"","4618","spatial-recall","43","145125","0.0-2.0-2.13","3","1","2024-03-18 04:52:12","c33429291dc7a384f95165972fddd116","128.12.122.24","Mozilla/5.0 (Windows NT 10.0; Win64; x64; rv:123.0) Gecko/20100101 Firefox/123.0","","Firefox","123.0","Windows","10.0","https://l.facebook.com/","en-US,en;q=0.5","IwAR0CRFrU8HfhHl5FhHk_2wqJwZKP5fdberTT2fqdS2NQiCQZhIYD1chETlg","","","","","","","[7,4,11,8]","4","554","false","[7,4,11,8]","1","4","4","[{""button"":7,""time"":931},{""button"":4,""time"":1775},{""button"":11,""time"":2751},{""button"":8,""time"":3679},{""button"":""submit"",""time"":4618}]","","","","","","","","",""
"","","screen-check","44","145130","0.0-2.0-0.14","3","1","2024-03-18 04:52:12","c33429291dc7a384f95165972fddd116","128.12.122.24","Mozilla/5.0 (Windows NT 10.0; Win64; x64; rv:123.0) Gecko/20100101 Firefox/123.0","","Firefox","123.0","Windows","10.0","https://l.facebook.com/","en-US,en;q=0.5","IwAR0CRFrU8HfhHl5FhHk_2wqJwZKP5fdberTT2fqdS2NQiCQZhIYD1chETlg","258","364","1280","559","","","","","","","","","","","","","","","","","","","",""
"","null","html-keyboard-response","45","145635","0.0-2.0-1.14","3","1","2024-03-18 04:52:12","c33429291dc7a384f95165972fddd116","128.12.122.24","Mozilla/5.0 (Windows NT 10.0; Win64; x64; rv:123.0) Gecko/20100101 Firefox/123.0","","Firefox","123.0","Windows","10.0","https://l.facebook.com/","en-US,en;q=0.5","IwAR0CRFrU8HfhHl5FhHk_2wqJwZKP5fdberTT2fqdS2NQiCQZhIYD1chETlg","","","","","<p style=""font-size: 48px;"">+</p>","null","","","","","","","","","","","","","","","","","",""
"","4288","spatial-recall","46","153435","0.0-2.0-2.14","3","1","2024-03-18 04:52:12","c33429291dc7a384f95165972fddd116","128.12.122.24","Mozilla/5.0 (Windows NT 10.0; Win64; x64; rv:123.0) Gecko/20100101 Firefox/123.0","","Firefox","123.0","Windows","10.0","https://l.facebook.com/","en-US,en;q=0.5","IwAR0CRFrU8HfhHl5FhHk_2wqJwZKP5fdberTT2fqdS2NQiCQZhIYD1chETlg","","","","","","","[0,1,3,6]","4","500","false","[0,1,3,6]","1","4","4","[{""button"":0,""time"":946},{""button"":1,""time"":1712},{""button"":3,""time"":2560},{""button"":6,""time"":3387},{""button"":""submit"",""time"":4288}]","","","","","","","","",""
"","","preload","47","153490","0.0-3.0","3","1","2024-03-18 04:52:12","c33429291dc7a384f95165972fddd116","128.12.122.24","Mozilla/5.0 (Windows NT 10.0; Win64; x64; rv:123.0) Gecko/20100101 Firefox/123.0","","Firefox","123.0","Windows","10.0","https://l.facebook.com/","en-US,en;q=0.5","IwAR0CRFrU8HfhHl5FhHk_2wqJwZKP5fdberTT2fqdS2NQiCQZhIYD1chETlg","","","","","","","","","","","","","","","","true","false","[]","[]","[]","","","",""
"","2761","html-keyboard-response","48","156254","0.0-4.0","3","1","2024-03-18 04:52:12","c33429291dc7a384f95165972fddd116","128.12.122.24","Mozilla/5.0 (Windows NT 10.0; Win64; x64; rv:123.0) Gecko/20100101 Firefox/123.0","","Firefox","123.0","Windows","10.0","https://l.facebook.com/","en-US,en;q=0.5","IwAR0CRFrU8HfhHl5FhHk_2wqJwZKP5fdberTT2fqdS2NQiCQZhIYD1chETlg","","","","","<p>You will now do a new task. Press any key to begin.</p>"," ","","","","","","","","","","","","","","","","","",""
"[{""page_index"":0,""viewing_time"":1730}]","1730","instructions","49","157990","0.0-5.0","3","1","2024-03-18 04:52:12","c33429291dc7a384f95165972fddd116","128.12.122.24","Mozilla/5.0 (Windows NT 10.0; Win64; x64; rv:123.0) Gecko/20100101 Firefox/123.0","","Firefox","123.0","Windows","10.0","https://l.facebook.com/","en-US,en;q=0.5","IwAR0CRFrU8HfhHl5FhHk_2wqJwZKP5fdberTT2fqdS2NQiCQZhIYD1chETlg","","","","","","","","","","","","","","","","","","","","","","","",""
"","7742","html-keyboard-response","50","165739","0.0-6.0","3","1","2024-03-18 04:52:12","c33429291dc7a384f95165972fddd116","128.12.122.24","Mozilla/5.0 (Windows NT 10.0; Win64; x64; rv:123.0) Gecko/20100101 Firefox/123.0","","Firefox","123.0","Windows","10.0","https://l.facebook.com/","en-US,en;q=0.5","IwAR0CRFrU8HfhHl5FhHk_2wqJwZKP5fdberTT2fqdS2NQiCQZhIYD1chETlg","","","","","
        <p>In this task, a circle will appear in the center
        of the screen.</p><p>If the circle is <strong>blue</strong>,
        press the letter F on the keyboard as fast as you can.</p>
        <p>If the circle is not <strong>blue</strong>, do not press a key.</p>
        <div style='width: 700px;'>
        <div style='float: left;'><img src='img/blue.png'></img>
        <p class='small'><strong>Press the F key</strong></p></div>
        <div style='float: right;'><img src='img/orange.png'></img>
        <p class='small'><strong>Do not press a key</strong></p></div>
        </div>
        <p>Press any key to begin.</p>
    ","f","","","","","","","","","","","","","","","","","",""
"","295","image-keyboard-response","51","168056","0.0-7.0-0.0","3","1","2024-03-18 04:52:12","c33429291dc7a384f95165972fddd116","128.12.122.24","Mozilla/5.0 (Windows NT 10.0; Win64; x64; rv:123.0) Gecko/20100101 Firefox/123.0","","Firefox","123.0","Windows","10.0","https://l.facebook.com/","en-US,en;q=0.5","IwAR0CRFrU8HfhHl5FhHk_2wqJwZKP5fdberTT2fqdS2NQiCQZhIYD1chETlg","","","","","img/blue.png","f","","","","","","","","","","","","","","","response","f","true",""
"","null","html-keyboard-response","52","169557","0.0-7.0-1.0","3","1","2024-03-18 04:52:12","c33429291dc7a384f95165972fddd116","128.12.122.24","Mozilla/5.0 (Windows NT 10.0; Win64; x64; rv:123.0) Gecko/20100101 Firefox/123.0","","Firefox","123.0","Windows","10.0","https://l.facebook.com/","en-US,en;q=0.5","IwAR0CRFrU8HfhHl5FhHk_2wqJwZKP5fdberTT2fqdS2NQiCQZhIYD1chETlg","","","","","<div style=""font-size:60px;"">+</div>","null","","","","","","","","","","","","","","","fixation","","","1490"
"","466","image-keyboard-response","53","170031","0.0-7.0-2.0","3","1","2024-03-18 04:52:12","c33429291dc7a384f95165972fddd116","128.12.122.24","Mozilla/5.0 (Windows NT 10.0; Win64; x64; rv:123.0) Gecko/20100101 Firefox/123.0","","Firefox","123.0","Windows","10.0","https://l.facebook.com/","en-US,en;q=0.5","IwAR0CRFrU8HfhHl5FhHk_2wqJwZKP5fdberTT2fqdS2NQiCQZhIYD1chETlg","","","","","img/blue.png","f","","","","","","","","","","","","","","","response","f","true",""
"","null","html-keyboard-response","54","171439","0.0-7.0-3.0","3","1","2024-03-18 04:52:12","c33429291dc7a384f95165972fddd116","128.12.122.24","Mozilla/5.0 (Windows NT 10.0; Win64; x64; rv:123.0) Gecko/20100101 Firefox/123.0","","Firefox","123.0","Windows","10.0","https://l.facebook.com/","en-US,en;q=0.5","IwAR0CRFrU8HfhHl5FhHk_2wqJwZKP5fdberTT2fqdS2NQiCQZhIYD1chETlg","","","","","<div style=""font-size:60px;"">+</div>","null","","","","","","","","","","","","","","","fixation","","","1401"
"","null","image-keyboard-response","55","173456","0.0-7.0-4.0","3","1","2024-03-18 04:52:12","c33429291dc7a384f95165972fddd116","128.12.122.24","Mozilla/5.0 (Windows NT 10.0; Win64; x64; rv:123.0) Gecko/20100101 Firefox/123.0","","Firefox","123.0","Windows","10.0","https://l.facebook.com/","en-US,en;q=0.5","IwAR0CRFrU8HfhHl5FhHk_2wqJwZKP5fdberTT2fqdS2NQiCQZhIYD1chETlg","","","","","img/orange.png","null","","","","","","","","","","","","","","","response","null","true",""
"","null","html-keyboard-response","56","174885","0.0-7.0-5.0","3","1","2024-03-18 04:52:12","c33429291dc7a384f95165972fddd116","128.12.122.24","Mozilla/5.0 (Windows NT 10.0; Win64; x64; rv:123.0) Gecko/20100101 Firefox/123.0","","Firefox","123.0","Windows","10.0","https://l.facebook.com/","en-US,en;q=0.5","IwAR0CRFrU8HfhHl5FhHk_2wqJwZKP5fdberTT2fqdS2NQiCQZhIYD1chETlg","","","","","<div style=""font-size:60px;"">+</div>","null","","","","","","","","","","","","","","","fixation","","","1409"
"","314","image-keyboard-response","57","175202","0.0-7.0-6.0","3","1","2024-03-18 04:52:12","c33429291dc7a384f95165972fddd116","128.12.122.24","Mozilla/5.0 (Windows NT 10.0; Win64; x64; rv:123.0) Gecko/20100101 Firefox/123.0","","Firefox","123.0","Windows","10.0","https://l.facebook.com/","en-US,en;q=0.5","IwAR0CRFrU8HfhHl5FhHk_2wqJwZKP5fdberTT2fqdS2NQiCQZhIYD1chETlg","","","","","img/blue.png","f","","","","","","","","","","","","","","","response","f","true",""
"","null","html-keyboard-response","58","176613","0.0-7.0-7.0","3","1","2024-03-18 04:52:12","c33429291dc7a384f95165972fddd116","128.12.122.24","Mozilla/5.0 (Windows NT 10.0; Win64; x64; rv:123.0) Gecko/20100101 Firefox/123.0","","Firefox","123.0","Windows","10.0","https://l.facebook.com/","en-US,en;q=0.5","IwAR0CRFrU8HfhHl5FhHk_2wqJwZKP5fdberTT2fqdS2NQiCQZhIYD1chETlg","","","","","<div style=""font-size:60px;"">+</div>","null","","","","","","","","","","","","","","","fixation","","","1391"
"","445","image-keyboard-response","59","177066","0.0-7.0-8.0","3","1","2024-03-18 04:52:12","c33429291dc7a384f95165972fddd116","128.12.122.24","Mozilla/5.0 (Windows NT 10.0; Win64; x64; rv:123.0) Gecko/20100101 Firefox/123.0","","Firefox","123.0","Windows","10.0","https://l.facebook.com/","en-US,en;q=0.5","IwAR0CRFrU8HfhHl5FhHk_2wqJwZKP5fdberTT2fqdS2NQiCQZhIYD1chETlg","","","","","img/blue.png","f","","","","","","","","","","","","","","","response","f","true",""
"","null","html-keyboard-response","60","178527","0.0-7.0-9.0","3","1","2024-03-18 04:52:12","c33429291dc7a384f95165972fddd116","128.12.122.24","Mozilla/5.0 (Windows NT 10.0; Win64; x64; rv:123.0) Gecko/20100101 Firefox/123.0","","Firefox","123.0","Windows","10.0","https://l.facebook.com/","en-US,en;q=0.5","IwAR0CRFrU8HfhHl5FhHk_2wqJwZKP5fdberTT2fqdS2NQiCQZhIYD1chETlg","","","","","<div style=""font-size:60px;"">+</div>","null","","","","","","","","","","","","","","","fixation","","","1457"
"","433","image-keyboard-response","61","178966","0.0-7.0-10.0","3","1","2024-03-18 04:52:12","c33429291dc7a384f95165972fddd116","128.12.122.24","Mozilla/5.0 (Windows NT 10.0; Win64; x64; rv:123.0) Gecko/20100101 Firefox/123.0","","Firefox","123.0","Windows","10.0","https://l.facebook.com/","en-US,en;q=0.5","IwAR0CRFrU8HfhHl5FhHk_2wqJwZKP5fdberTT2fqdS2NQiCQZhIYD1chETlg","","","","","img/blue.png","f","","","","","","","","","","","","","","","response","f","true",""
"","null","html-keyboard-response","62","180436","0.0-7.0-11.0","3","1","2024-03-18 04:52:12","c33429291dc7a384f95165972fddd116","128.12.122.24","Mozilla/5.0 (Windows NT 10.0; Win64; x64; rv:123.0) Gecko/20100101 Firefox/123.0","","Firefox","123.0","Windows","10.0","https://l.facebook.com/","en-US,en;q=0.5","IwAR0CRFrU8HfhHl5FhHk_2wqJwZKP5fdberTT2fqdS2NQiCQZhIYD1chETlg","","","","","<div style=""font-size:60px;"">+</div>","null","","","","","","","","","","","","","","","fixation","","","1458"
"","391","image-keyboard-response","63","180831","0.0-7.0-12.0","3","1","2024-03-18 04:52:12","c33429291dc7a384f95165972fddd116","128.12.122.24","Mozilla/5.0 (Windows NT 10.0; Win64; x64; rv:123.0) Gecko/20100101 Firefox/123.0","","Firefox","123.0","Windows","10.0","https://l.facebook.com/","en-US,en;q=0.5","IwAR0CRFrU8HfhHl5FhHk_2wqJwZKP5fdberTT2fqdS2NQiCQZhIYD1chETlg","","","","","img/blue.png","f","","","","","","","","","","","","","","","response","f","true",""
"","null","html-keyboard-response","64","182307","0.0-7.0-13.0","3","1","2024-03-18 04:52:12","c33429291dc7a384f95165972fddd116","128.12.122.24","Mozilla/5.0 (Windows NT 10.0; Win64; x64; rv:123.0) Gecko/20100101 Firefox/123.0","","Firefox","123.0","Windows","10.0","https://l.facebook.com/","en-US,en;q=0.5","IwAR0CRFrU8HfhHl5FhHk_2wqJwZKP5fdberTT2fqdS2NQiCQZhIYD1chETlg","","","","","<div style=""font-size:60px;"">+</div>","null","","","","","","","","","","","","","","","fixation","","","1461"
"","414","image-keyboard-response","65","182732","0.0-7.0-14.0","3","1","2024-03-18 04:52:12","c33429291dc7a384f95165972fddd116","128.12.122.24","Mozilla/5.0 (Windows NT 10.0; Win64; x64; rv:123.0) Gecko/20100101 Firefox/123.0","","Firefox","123.0","Windows","10.0","https://l.facebook.com/","en-US,en;q=0.5","IwAR0CRFrU8HfhHl5FhHk_2wqJwZKP5fdberTT2fqdS2NQiCQZhIYD1chETlg","","","","","img/blue.png","f","","","","","","","","","","","","","","","response","f","true",""
"","null","html-keyboard-response","66","184188","0.0-7.0-15.0","3","1","2024-03-18 04:52:12","c33429291dc7a384f95165972fddd116","128.12.122.24","Mozilla/5.0 (Windows NT 10.0; Win64; x64; rv:123.0) Gecko/20100101 Firefox/123.0","","Firefox","123.0","Windows","10.0","https://l.facebook.com/","en-US,en;q=0.5","IwAR0CRFrU8HfhHl5FhHk_2wqJwZKP5fdberTT2fqdS2NQiCQZhIYD1chETlg","","","","","<div style=""font-size:60px;"">+</div>","null","","","","","","","","","","","","","","","fixation","","","1447"
"","376","image-keyboard-response","67","184570","0.0-7.0-16.0","3","1","2024-03-18 04:52:12","c33429291dc7a384f95165972fddd116","128.12.122.24","Mozilla/5.0 (Windows NT 10.0; Win64; x64; rv:123.0) Gecko/20100101 Firefox/123.0","","Firefox","123.0","Windows","10.0","https://l.facebook.com/","en-US,en;q=0.5","IwAR0CRFrU8HfhHl5FhHk_2wqJwZKP5fdberTT2fqdS2NQiCQZhIYD1chETlg","","","","","img/blue.png","f","","","","","","","","","","","","","","","response","f","true",""
"","null","html-keyboard-response","68","186056","0.0-7.0-17.0","3","1","2024-03-18 04:52:12","c33429291dc7a384f95165972fddd116","128.12.122.24","Mozilla/5.0 (Windows NT 10.0; Win64; x64; rv:123.0) Gecko/20100101 Firefox/123.0","","Firefox","123.0","Windows","10.0","https://l.facebook.com/","en-US,en;q=0.5","IwAR0CRFrU8HfhHl5FhHk_2wqJwZKP5fdberTT2fqdS2NQiCQZhIYD1chETlg","","","","","<div style=""font-size:60px;"">+</div>","null","","","","","","","","","","","","","","","fixation","","","1468"
"","351","image-keyboard-response","69","186414","0.0-7.0-18.0","3","1","2024-03-18 04:52:12","c33429291dc7a384f95165972fddd116","128.12.122.24","Mozilla/5.0 (Windows NT 10.0; Win64; x64; rv:123.0) Gecko/20100101 Firefox/123.0","","Firefox","123.0","Windows","10.0","https://l.facebook.com/","en-US,en;q=0.5","IwAR0CRFrU8HfhHl5FhHk_2wqJwZKP5fdberTT2fqdS2NQiCQZhIYD1chETlg","","","","","img/blue.png","f","","","","","","","","","","","","","","","response","f","true",""
"","null","html-keyboard-response","70","187811","0.0-7.0-19.0","3","1","2024-03-18 04:52:12","c33429291dc7a384f95165972fddd116","128.12.122.24","Mozilla/5.0 (Windows NT 10.0; Win64; x64; rv:123.0) Gecko/20100101 Firefox/123.0","","Firefox","123.0","Windows","10.0","https://l.facebook.com/","en-US,en;q=0.5","IwAR0CRFrU8HfhHl5FhHk_2wqJwZKP5fdberTT2fqdS2NQiCQZhIYD1chETlg","","","","","<div style=""font-size:60px;"">+</div>","null","","","","","","","","","","","","","","","fixation","","","1391"
"","415","image-keyboard-response","71","188234","0.0-7.0-20.0","3","1","2024-03-18 04:52:12","c33429291dc7a384f95165972fddd116","128.12.122.24","Mozilla/5.0 (Windows NT 10.0; Win64; x64; rv:123.0) Gecko/20100101 Firefox/123.0","","Firefox","123.0","Windows","10.0","https://l.facebook.com/","en-US,en;q=0.5","IwAR0CRFrU8HfhHl5FhHk_2wqJwZKP5fdberTT2fqdS2NQiCQZhIYD1chETlg","","","","","img/blue.png","f","","","","","","","","","","","","","","","response","f","true",""
"","null","html-keyboard-response","72","189543","0.0-7.0-21.0","3","1","2024-03-18 04:52:12","c33429291dc7a384f95165972fddd116","128.12.122.24","Mozilla/5.0 (Windows NT 10.0; Win64; x64; rv:123.0) Gecko/20100101 Firefox/123.0","","Firefox","123.0","Windows","10.0","https://l.facebook.com/","en-US,en;q=0.5","IwAR0CRFrU8HfhHl5FhHk_2wqJwZKP5fdberTT2fqdS2NQiCQZhIYD1chETlg","","","","","<div style=""font-size:60px;"">+</div>","null","","","","","","","","","","","","","","","fixation","","","1288"
"","369","image-keyboard-response","73","189919","0.0-7.0-22.0","3","1","2024-03-18 04:52:12","c33429291dc7a384f95165972fddd116","128.12.122.24","Mozilla/5.0 (Windows NT 10.0; Win64; x64; rv:123.0) Gecko/20100101 Firefox/123.0","","Firefox","123.0","Windows","10.0","https://l.facebook.com/","en-US,en;q=0.5","IwAR0CRFrU8HfhHl5FhHk_2wqJwZKP5fdberTT2fqdS2NQiCQZhIYD1chETlg","","","","","img/blue.png","f","","","","","","","","","","","","","","","response","f","true",""
"","null","html-keyboard-response","74","191074","0.0-7.0-23.0","3","1","2024-03-18 04:52:12","c33429291dc7a384f95165972fddd116","128.12.122.24","Mozilla/5.0 (Windows NT 10.0; Win64; x64; rv:123.0) Gecko/20100101 Firefox/123.0","","Firefox","123.0","Windows","10.0","https://l.facebook.com/","en-US,en;q=0.5","IwAR0CRFrU8HfhHl5FhHk_2wqJwZKP5fdberTT2fqdS2NQiCQZhIYD1chETlg","","","","","<div style=""font-size:60px;"">+</div>","null","","","","","","","","","","","","","","","fixation","","","1135"
"","null","image-keyboard-response","75","192097","0.0-7.0-24.0","3","1","2024-03-18 04:52:12","c33429291dc7a384f95165972fddd116","128.12.122.24","Mozilla/5.0 (Windows NT 10.0; Win64; x64; rv:123.0) Gecko/20100101 Firefox/123.0","","Firefox","123.0","Windows","10.0","https://l.facebook.com/","en-US,en;q=0.5","IwAR0CRFrU8HfhHl5FhHk_2wqJwZKP5fdberTT2fqdS2NQiCQZhIYD1chETlg","","","","","img/orange.png","null","","","","","","","","","","","","","","","response","null","true",""
"","null","html-keyboard-response","76","193448","0.0-7.0-25.0","3","1","2024-03-18 04:52:12","c33429291dc7a384f95165972fddd116","128.12.122.24","Mozilla/5.0 (Windows NT 10.0; Win64; x64; rv:123.0) Gecko/20100101 Firefox/123.0","","Firefox","123.0","Windows","10.0","https://l.facebook.com/","en-US,en;q=0.5","IwAR0CRFrU8HfhHl5FhHk_2wqJwZKP5fdberTT2fqdS2NQiCQZhIYD1chETlg","","","","","<div style=""font-size:60px;"">+</div>","null","","","","","","","","","","","","","","","fixation","","","1330"
"","287","image-keyboard-response","77","193741","0.0-7.0-26.0","3","1","2024-03-18 04:52:12","c33429291dc7a384f95165972fddd116","128.12.122.24","Mozilla/5.0 (Windows NT 10.0; Win64; x64; rv:123.0) Gecko/20100101 Firefox/123.0","","Firefox","123.0","Windows","10.0","https://l.facebook.com/","en-US,en;q=0.5","IwAR0CRFrU8HfhHl5FhHk_2wqJwZKP5fdberTT2fqdS2NQiCQZhIYD1chETlg","","","","","img/blue.png","f","","","","","","","","","","","","","","","response","f","true",""
"","null","html-keyboard-response","78","195116","0.0-7.0-27.0","3","1","2024-03-18 04:52:12","c33429291dc7a384f95165972fddd116","128.12.122.24","Mozilla/5.0 (Windows NT 10.0; Win64; x64; rv:123.0) Gecko/20100101 Firefox/123.0","","Firefox","123.0","Windows","10.0","https://l.facebook.com/","en-US,en;q=0.5","IwAR0CRFrU8HfhHl5FhHk_2wqJwZKP5fdberTT2fqdS2NQiCQZhIYD1chETlg","","","","","<div style=""font-size:60px;"">+</div>","null","","","","","","","","","","","","","","","fixation","","","1365"
"","343","image-keyboard-response","79","195466","0.0-7.0-28.0","3","1","2024-03-18 04:52:12","c33429291dc7a384f95165972fddd116","128.12.122.24","Mozilla/5.0 (Windows NT 10.0; Win64; x64; rv:123.0) Gecko/20100101 Firefox/123.0","","Firefox","123.0","Windows","10.0","https://l.facebook.com/","en-US,en;q=0.5","IwAR0CRFrU8HfhHl5FhHk_2wqJwZKP5fdberTT2fqdS2NQiCQZhIYD1chETlg","","","","","img/blue.png","f","","","","","","","","","","","","","","","response","f","true",""
"","null","html-keyboard-response","80","196650","0.0-7.0-29.0","3","1","2024-03-18 04:52:12","c33429291dc7a384f95165972fddd116","128.12.122.24","Mozilla/5.0 (Windows NT 10.0; Win64; x64; rv:123.0) Gecko/20100101 Firefox/123.0","","Firefox","123.0","Windows","10.0","https://l.facebook.com/","en-US,en;q=0.5","IwAR0CRFrU8HfhHl5FhHk_2wqJwZKP5fdberTT2fqdS2NQiCQZhIYD1chETlg","","","","","<div style=""font-size:60px;"">+</div>","null","","","","","","","","","","","","","","","fixation","","","1167"
"","null","image-keyboard-response","81","197666","0.0-7.0-30.0","3","1","2024-03-18 04:52:12","c33429291dc7a384f95165972fddd116","128.12.122.24","Mozilla/5.0 (Windows NT 10.0; Win64; x64; rv:123.0) Gecko/20100101 Firefox/123.0","","Firefox","123.0","Windows","10.0","https://l.facebook.com/","en-US,en;q=0.5","IwAR0CRFrU8HfhHl5FhHk_2wqJwZKP5fdberTT2fqdS2NQiCQZhIYD1chETlg","","","","","img/orange.png","null","","","","","","","","","","","","","","","response","null","true",""
"","null","html-keyboard-response","82","199021","0.0-7.0-31.0","3","1","2024-03-18 04:52:12","c33429291dc7a384f95165972fddd116","128.12.122.24","Mozilla/5.0 (Windows NT 10.0; Win64; x64; rv:123.0) Gecko/20100101 Firefox/123.0","","Firefox","123.0","Windows","10.0","https://l.facebook.com/","en-US,en;q=0.5","IwAR0CRFrU8HfhHl5FhHk_2wqJwZKP5fdberTT2fqdS2NQiCQZhIYD1chETlg","","","","","<div style=""font-size:60px;"">+</div>","null","","","","","","","","","","","","","","","fixation","","","1347"
"","null","image-keyboard-response","83","200032","0.0-7.0-32.0","3","1","2024-03-18 04:52:12","c33429291dc7a384f95165972fddd116","128.12.122.24","Mozilla/5.0 (Windows NT 10.0; Win64; x64; rv:123.0) Gecko/20100101 Firefox/123.0","","Firefox","123.0","Windows","10.0","https://l.facebook.com/","en-US,en;q=0.5","IwAR0CRFrU8HfhHl5FhHk_2wqJwZKP5fdberTT2fqdS2NQiCQZhIYD1chETlg","","","","","img/orange.png","null","","","","","","","","","","","","","","","response","null","true",""
"","null","html-keyboard-response","84","201280","0.0-7.0-33.0","3","1","2024-03-18 04:52:12","c33429291dc7a384f95165972fddd116","128.12.122.24","Mozilla/5.0 (Windows NT 10.0; Win64; x64; rv:123.0) Gecko/20100101 Firefox/123.0","","Firefox","123.0","Windows","10.0","https://l.facebook.com/","en-US,en;q=0.5","IwAR0CRFrU8HfhHl5FhHk_2wqJwZKP5fdberTT2fqdS2NQiCQZhIYD1chETlg","","","","","<div style=""font-size:60px;"">+</div>","null","","","","","","","","","","","","","","","fixation","","","1220"
"","null","image-keyboard-response","85","202305","0.0-7.0-34.0","3","1","2024-03-18 04:52:12","c33429291dc7a384f95165972fddd116","128.12.122.24","Mozilla/5.0 (Windows NT 10.0; Win64; x64; rv:123.0) Gecko/20100101 Firefox/123.0","","Firefox","123.0","Windows","10.0","https://l.facebook.com/","en-US,en;q=0.5","IwAR0CRFrU8HfhHl5FhHk_2wqJwZKP5fdberTT2fqdS2NQiCQZhIYD1chETlg","","","","","img/orange.png","null","","","","","","","","","","","","","","","response","null","true",""
"","null","html-keyboard-response","86","203497","0.0-7.0-35.0","3","1","2024-03-18 04:52:12","c33429291dc7a384f95165972fddd116","128.12.122.24","Mozilla/5.0 (Windows NT 10.0; Win64; x64; rv:123.0) Gecko/20100101 Firefox/123.0","","Firefox","123.0","Windows","10.0","https://l.facebook.com/","en-US,en;q=0.5","IwAR0CRFrU8HfhHl5FhHk_2wqJwZKP5fdberTT2fqdS2NQiCQZhIYD1chETlg","","","","","<div style=""font-size:60px;"">+</div>","null","","","","","","","","","","","","","","","fixation","","","1168"
"","383","image-keyboard-response","87","203889","0.0-7.0-36.0","3","1","2024-03-18 04:52:12","c33429291dc7a384f95165972fddd116","128.12.122.24","Mozilla/5.0 (Windows NT 10.0; Win64; x64; rv:123.0) Gecko/20100101 Firefox/123.0","","Firefox","123.0","Windows","10.0","https://l.facebook.com/","en-US,en;q=0.5","IwAR0CRFrU8HfhHl5FhHk_2wqJwZKP5fdberTT2fqdS2NQiCQZhIYD1chETlg","","","","","img/blue.png","f","","","","","","","","","","","","","","","response","f","true",""
"","null","html-keyboard-response","88","205072","0.0-7.0-37.0","3","1","2024-03-18 04:52:12","c33429291dc7a384f95165972fddd116","128.12.122.24","Mozilla/5.0 (Windows NT 10.0; Win64; x64; rv:123.0) Gecko/20100101 Firefox/123.0","","Firefox","123.0","Windows","10.0","https://l.facebook.com/","en-US,en;q=0.5","IwAR0CRFrU8HfhHl5FhHk_2wqJwZKP5fdberTT2fqdS2NQiCQZhIYD1chETlg","","","","","<div style=""font-size:60px;"">+</div>","null","","","","","","","","","","","","","","","fixation","","","1168"
"","322","image-keyboard-response","89","205416","0.0-7.0-38.0","3","1","2024-03-18 04:52:12","c33429291dc7a384f95165972fddd116","128.12.122.24","Mozilla/5.0 (Windows NT 10.0; Win64; x64; rv:123.0) Gecko/20100101 Firefox/123.0","","Firefox","123.0","Windows","10.0","https://l.facebook.com/","en-US,en;q=0.5","IwAR0CRFrU8HfhHl5FhHk_2wqJwZKP5fdberTT2fqdS2NQiCQZhIYD1chETlg","","","","","img/blue.png","f","","","","","","","","","","","","","","","response","f","true",""
"","null","html-keyboard-response","90","206683","0.0-7.0-39.0","3","1","2024-03-18 04:52:12","c33429291dc7a384f95165972fddd116","128.12.122.24","Mozilla/5.0 (Windows NT 10.0; Win64; x64; rv:123.0) Gecko/20100101 Firefox/123.0","","Firefox","123.0","Windows","10.0","https://l.facebook.com/","en-US,en;q=0.5","IwAR0CRFrU8HfhHl5FhHk_2wqJwZKP5fdberTT2fqdS2NQiCQZhIYD1chETlg","","","","","<div style=""font-size:60px;"">+</div>","null","","","","","","","","","","","","","","","fixation","","","1245"
"","397","image-keyboard-response","91","207093","0.0-7.0-40.0","3","1","2024-03-18 04:52:12","c33429291dc7a384f95165972fddd116","128.12.122.24","Mozilla/5.0 (Windows NT 10.0; Win64; x64; rv:123.0) Gecko/20100101 Firefox/123.0","","Firefox","123.0","Windows","10.0","https://l.facebook.com/","en-US,en;q=0.5","IwAR0CRFrU8HfhHl5FhHk_2wqJwZKP5fdberTT2fqdS2NQiCQZhIYD1chETlg","","","","","img/blue.png","f","","","","","","","","","","","","","","","response","f","true",""
"","null","html-keyboard-response","92","208172","0.0-7.0-41.0","3","1","2024-03-18 04:52:12","c33429291dc7a384f95165972fddd116","128.12.122.24","Mozilla/5.0 (Windows NT 10.0; Win64; x64; rv:123.0) Gecko/20100101 Firefox/123.0","","Firefox","123.0","Windows","10.0","https://l.facebook.com/","en-US,en;q=0.5","IwAR0CRFrU8HfhHl5FhHk_2wqJwZKP5fdberTT2fqdS2NQiCQZhIYD1chETlg","","","","","<div style=""font-size:60px;"">+</div>","null","","","","","","","","","","","","","","","fixation","","","1057"
"","367","image-keyboard-response","93","208544","0.0-7.0-42.0","3","1","2024-03-18 04:52:12","c33429291dc7a384f95165972fddd116","128.12.122.24","Mozilla/5.0 (Windows NT 10.0; Win64; x64; rv:123.0) Gecko/20100101 Firefox/123.0","","Firefox","123.0","Windows","10.0","https://l.facebook.com/","en-US,en;q=0.5","IwAR0CRFrU8HfhHl5FhHk_2wqJwZKP5fdberTT2fqdS2NQiCQZhIYD1chETlg","","","","","img/blue.png","f","","","","","","","","","","","","","","","response","f","true",""
"","null","html-keyboard-response","94","209554","0.0-7.0-43.0","3","1","2024-03-18 04:52:12","c33429291dc7a384f95165972fddd116","128.12.122.24","Mozilla/5.0 (Windows NT 10.0; Win64; x64; rv:123.0) Gecko/20100101 Firefox/123.0","","Firefox","123.0","Windows","10.0","https://l.facebook.com/","en-US,en;q=0.5","IwAR0CRFrU8HfhHl5FhHk_2wqJwZKP5fdberTT2fqdS2NQiCQZhIYD1chETlg","","","","","<div style=""font-size:60px;"">+</div>","null","","","","","","","","","","","","","","","fixation","","","999"
"","391","image-keyboard-response","95","209954","0.0-7.0-44.0","3","1","2024-03-18 04:52:12","c33429291dc7a384f95165972fddd116","128.12.122.24","Mozilla/5.0 (Windows NT 10.0; Win64; x64; rv:123.0) Gecko/20100101 Firefox/123.0","","Firefox","123.0","Windows","10.0","https://l.facebook.com/","en-US,en;q=0.5","IwAR0CRFrU8HfhHl5FhHk_2wqJwZKP5fdberTT2fqdS2NQiCQZhIYD1chETlg","","","","","img/blue.png","f","","","","","","","","","","","","","","","response","f","true",""
"","null","html-keyboard-response","96","210892","0.0-7.0-45.0","3","1","2024-03-18 04:52:12","c33429291dc7a384f95165972fddd116","128.12.122.24","Mozilla/5.0 (Windows NT 10.0; Win64; x64; rv:123.0) Gecko/20100101 Firefox/123.0","","Firefox","123.0","Windows","10.0","https://l.facebook.com/","en-US,en;q=0.5","IwAR0CRFrU8HfhHl5FhHk_2wqJwZKP5fdberTT2fqdS2NQiCQZhIYD1chETlg","","","","","<div style=""font-size:60px;"">+</div>","null","","","","","","","","","","","","","","","fixation","","","918"
"","297","image-keyboard-response","97","211200","0.0-7.0-46.0","3","1","2024-03-18 04:52:12","c33429291dc7a384f95165972fddd116","128.12.122.24","Mozilla/5.0 (Windows NT 10.0; Win64; x64; rv:123.0) Gecko/20100101 Firefox/123.0","","Firefox","123.0","Windows","10.0","https://l.facebook.com/","en-US,en;q=0.5","IwAR0CRFrU8HfhHl5FhHk_2wqJwZKP5fdberTT2fqdS2NQiCQZhIYD1chETlg","","","","","img/blue.png","f","","","","","","","","","","","","","","","response","f","true",""
"","null","html-keyboard-response","98","212247","0.0-7.0-47.0","3","1","2024-03-18 04:52:12","c33429291dc7a384f95165972fddd116","128.12.122.24","Mozilla/5.0 (Windows NT 10.0; Win64; x64; rv:123.0) Gecko/20100101 Firefox/123.0","","Firefox","123.0","Windows","10.0","https://l.facebook.com/","en-US,en;q=0.5","IwAR0CRFrU8HfhHl5FhHk_2wqJwZKP5fdberTT2fqdS2NQiCQZhIYD1chETlg","","","","","<div style=""font-size:60px;"">+</div>","null","","","","","","","","","","","","","","","fixation","","","1035"
"","336","image-keyboard-response","99","212592","0.0-7.0-48.0","3","1","2024-03-18 04:52:12","c33429291dc7a384f95165972fddd116","128.12.122.24","Mozilla/5.0 (Windows NT 10.0; Win64; x64; rv:123.0) Gecko/20100101 Firefox/123.0","","Firefox","123.0","Windows","10.0","https://l.facebook.com/","en-US,en;q=0.5","IwAR0CRFrU8HfhHl5FhHk_2wqJwZKP5fdberTT2fqdS2NQiCQZhIYD1chETlg","","","","","img/blue.png","f","","","","","","","","","","","","","","","response","f","true",""
"","null","html-keyboard-response","100","213638","0.0-7.0-49.0","3","1","2024-03-18 04:52:12","c33429291dc7a384f95165972fddd116","128.12.122.24","Mozilla/5.0 (Windows NT 10.0; Win64; x64; rv:123.0) Gecko/20100101 Firefox/123.0","","Firefox","123.0","Windows","10.0","https://l.facebook.com/","en-US,en;q=0.5","IwAR0CRFrU8HfhHl5FhHk_2wqJwZKP5fdberTT2fqdS2NQiCQZhIYD1chETlg","","","","","<div style=""font-size:60px;"">+</div>","null","","","","","","","","","","","","","","","fixation","","","1036"
"","344","image-keyboard-response","101","213991","0.0-7.0-50.0","3","1","2024-03-18 04:52:12","c33429291dc7a384f95165972fddd116","128.12.122.24","Mozilla/5.0 (Windows NT 10.0; Win64; x64; rv:123.0) Gecko/20100101 Firefox/123.0","","Firefox","123.0","Windows","10.0","https://l.facebook.com/","en-US,en;q=0.5","IwAR0CRFrU8HfhHl5FhHk_2wqJwZKP5fdberTT2fqdS2NQiCQZhIYD1chETlg","","","","","img/blue.png","f","","","","","","","","","","","","","","","response","f","true",""
"","null","html-keyboard-response","102","214968","0.0-7.0-51.0","3","1","2024-03-18 04:52:12","c33429291dc7a384f95165972fddd116","128.12.122.24","Mozilla/5.0 (Windows NT 10.0; Win64; x64; rv:123.0) Gecko/20100101 Firefox/123.0","","Firefox","123.0","Windows","10.0","https://l.facebook.com/","en-US,en;q=0.5","IwAR0CRFrU8HfhHl5FhHk_2wqJwZKP5fdberTT2fqdS2NQiCQZhIYD1chETlg","","","","","<div style=""font-size:60px;"">+</div>","null","","","","","","","","","","","","","","","fixation","","","957"
"","null","image-keyboard-response","103","216980","0.0-7.0-52.0","3","1","2024-03-18 04:52:12","c33429291dc7a384f95165972fddd116","128.12.122.24","Mozilla/5.0 (Windows NT 10.0; Win64; x64; rv:123.0) Gecko/20100101 Firefox/123.0","","Firefox","123.0","Windows","10.0","https://l.facebook.com/","en-US,en;q=0.5","IwAR0CRFrU8HfhHl5FhHk_2wqJwZKP5fdberTT2fqdS2NQiCQZhIYD1chETlg","","","","","img/orange.png","null","","","","","","","","","","","","","","","response","null","true",""
"","null","html-keyboard-response","104","217957","0.0-7.0-53.0","3","1","2024-03-18 04:52:12","c33429291dc7a384f95165972fddd116","128.12.122.24","Mozilla/5.0 (Windows NT 10.0; Win64; x64; rv:123.0) Gecko/20100101 Firefox/123.0","","Firefox","123.0","Windows","10.0","https://l.facebook.com/","en-US,en;q=0.5","IwAR0CRFrU8HfhHl5FhHk_2wqJwZKP5fdberTT2fqdS2NQiCQZhIYD1chETlg","","","","","<div style=""font-size:60px;"">+</div>","null","","","","","","","","","","","","","","","fixation","","","966"
"","428","image-keyboard-response","105","218396","0.0-7.0-54.0","3","1","2024-03-18 04:52:12","c33429291dc7a384f95165972fddd116","128.12.122.24","Mozilla/5.0 (Windows NT 10.0; Win64; x64; rv:123.0) Gecko/20100101 Firefox/123.0","","Firefox","123.0","Windows","10.0","https://l.facebook.com/","en-US,en;q=0.5","IwAR0CRFrU8HfhHl5FhHk_2wqJwZKP5fdberTT2fqdS2NQiCQZhIYD1chETlg","","","","","img/blue.png","f","","","","","","","","","","","","","","","response","f","true",""
"","null","html-keyboard-response","106","219497","0.0-7.0-55.0","3","1","2024-03-18 04:52:12","c33429291dc7a384f95165972fddd116","128.12.122.24","Mozilla/5.0 (Windows NT 10.0; Win64; x64; rv:123.0) Gecko/20100101 Firefox/123.0","","Firefox","123.0","Windows","10.0","https://l.facebook.com/","en-US,en;q=0.5","IwAR0CRFrU8HfhHl5FhHk_2wqJwZKP5fdberTT2fqdS2NQiCQZhIYD1chETlg","","","","","<div style=""font-size:60px;"">+</div>","null","","","","","","","","","","","","","","","fixation","","","1082"
"","319","image-keyboard-response","107","219825","0.0-7.0-56.0","3","1","2024-03-18 04:52:12","c33429291dc7a384f95165972fddd116","128.12.122.24","Mozilla/5.0 (Windows NT 10.0; Win64; x64; rv:123.0) Gecko/20100101 Firefox/123.0","","Firefox","123.0","Windows","10.0","https://l.facebook.com/","en-US,en;q=0.5","IwAR0CRFrU8HfhHl5FhHk_2wqJwZKP5fdberTT2fqdS2NQiCQZhIYD1chETlg","","","","","img/blue.png","f","","","","","","","","","","","","","","","response","f","true",""
"","null","html-keyboard-response","108","220799","0.0-7.0-57.0","3","1","2024-03-18 04:52:12","c33429291dc7a384f95165972fddd116","128.12.122.24","Mozilla/5.0 (Windows NT 10.0; Win64; x64; rv:123.0) Gecko/20100101 Firefox/123.0","","Firefox","123.0","Windows","10.0","https://l.facebook.com/","en-US,en;q=0.5","IwAR0CRFrU8HfhHl5FhHk_2wqJwZKP5fdberTT2fqdS2NQiCQZhIYD1chETlg","","","","","<div style=""font-size:60px;"">+</div>","null","","","","","","","","","","","","","","","fixation","","","952"
"","305","image-keyboard-response","109","221113","0.0-7.0-58.0","3","1","2024-03-18 04:52:12","c33429291dc7a384f95165972fddd116","128.12.122.24","Mozilla/5.0 (Windows NT 10.0; Win64; x64; rv:123.0) Gecko/20100101 Firefox/123.0","","Firefox","123.0","Windows","10.0","https://l.facebook.com/","en-US,en;q=0.5","IwAR0CRFrU8HfhHl5FhHk_2wqJwZKP5fdberTT2fqdS2NQiCQZhIYD1chETlg","","","","","img/blue.png","f","","","","","","","","","","","","","","","response","f","true",""
"","null","html-keyboard-response","110","222093","0.0-7.0-59.0","3","1","2024-03-18 04:52:12","c33429291dc7a384f95165972fddd116","128.12.122.24","Mozilla/5.0 (Windows NT 10.0; Win64; x64; rv:123.0) Gecko/20100101 Firefox/123.0","","Firefox","123.0","Windows","10.0","https://l.facebook.com/","en-US,en;q=0.5","IwAR0CRFrU8HfhHl5FhHk_2wqJwZKP5fdberTT2fqdS2NQiCQZhIYD1chETlg","","","","","<div style=""font-size:60px;"">+</div>","null","","","","","","","","","","","","","","","fixation","","","964"
"","284","image-keyboard-response","111","222389","0.0-7.0-0.1","3","1","2024-03-18 04:52:12","c33429291dc7a384f95165972fddd116","128.12.122.24","Mozilla/5.0 (Windows NT 10.0; Win64; x64; rv:123.0) Gecko/20100101 Firefox/123.0","","Firefox","123.0","Windows","10.0","https://l.facebook.com/","en-US,en;q=0.5","IwAR0CRFrU8HfhHl5FhHk_2wqJwZKP5fdberTT2fqdS2NQiCQZhIYD1chETlg","","","","","img/blue.png","f","","","","","","","","","","","","","","","response","f","true",""
"","null","html-keyboard-response","112","223896","0.0-7.0-1.1","3","1","2024-03-18 04:52:12","c33429291dc7a384f95165972fddd116","128.12.122.24","Mozilla/5.0 (Windows NT 10.0; Win64; x64; rv:123.0) Gecko/20100101 Firefox/123.0","","Firefox","123.0","Windows","10.0","https://l.facebook.com/","en-US,en;q=0.5","IwAR0CRFrU8HfhHl5FhHk_2wqJwZKP5fdberTT2fqdS2NQiCQZhIYD1chETlg","","","","","<div style=""font-size:60px;"">+</div>","null","","","","","","","","","","","","","","","fixation","","","1490"
"","326","image-keyboard-response","113","224232","0.0-7.0-2.1","3","1","2024-03-18 04:52:12","c33429291dc7a384f95165972fddd116","128.12.122.24","Mozilla/5.0 (Windows NT 10.0; Win64; x64; rv:123.0) Gecko/20100101 Firefox/123.0","","Firefox","123.0","Windows","10.0","https://l.facebook.com/","en-US,en;q=0.5","IwAR0CRFrU8HfhHl5FhHk_2wqJwZKP5fdberTT2fqdS2NQiCQZhIYD1chETlg","","","","","img/blue.png","f","","","","","","","","","","","","","","","response","f","true",""
"","null","html-keyboard-response","114","225656","0.0-7.0-3.1","3","1","2024-03-18 04:52:12","c33429291dc7a384f95165972fddd116","128.12.122.24","Mozilla/5.0 (Windows NT 10.0; Win64; x64; rv:123.0) Gecko/20100101 Firefox/123.0","","Firefox","123.0","Windows","10.0","https://l.facebook.com/","en-US,en;q=0.5","IwAR0CRFrU8HfhHl5FhHk_2wqJwZKP5fdberTT2fqdS2NQiCQZhIYD1chETlg","","","","","<div style=""font-size:60px;"">+</div>","null","","","","","","","","","","","","","","","fixation","","","1401"
"","null","image-keyboard-response","115","227669","0.0-7.0-4.1","3","1","2024-03-18 04:52:12","c33429291dc7a384f95165972fddd116","128.12.122.24","Mozilla/5.0 (Windows NT 10.0; Win64; x64; rv:123.0) Gecko/20100101 Firefox/123.0","","Firefox","123.0","Windows","10.0","https://l.facebook.com/","en-US,en;q=0.5","IwAR0CRFrU8HfhHl5FhHk_2wqJwZKP5fdberTT2fqdS2NQiCQZhIYD1chETlg","","","","","img/orange.png","null","","","","","","","","","","","","","","","response","null","true",""
"","null","html-keyboard-response","116","229099","0.0-7.0-5.1","3","1","2024-03-18 04:52:12","c33429291dc7a384f95165972fddd116","128.12.122.24","Mozilla/5.0 (Windows NT 10.0; Win64; x64; rv:123.0) Gecko/20100101 Firefox/123.0","","Firefox","123.0","Windows","10.0","https://l.facebook.com/","en-US,en;q=0.5","IwAR0CRFrU8HfhHl5FhHk_2wqJwZKP5fdberTT2fqdS2NQiCQZhIYD1chETlg","","","","","<div style=""font-size:60px;"">+</div>","null","","","","","","","","","","","","","","","fixation","","","1409"
"","281","image-keyboard-response","117","229385","0.0-7.0-6.1","3","1","2024-03-18 04:52:12","c33429291dc7a384f95165972fddd116","128.12.122.24","Mozilla/5.0 (Windows NT 10.0; Win64; x64; rv:123.0) Gecko/20100101 Firefox/123.0","","Firefox","123.0","Windows","10.0","https://l.facebook.com/","en-US,en;q=0.5","IwAR0CRFrU8HfhHl5FhHk_2wqJwZKP5fdberTT2fqdS2NQiCQZhIYD1chETlg","","","","","img/blue.png","f","","","","","","","","","","","","","","","response","f","true",""
"","null","html-keyboard-response","118","230796","0.0-7.0-7.1","3","1","2024-03-18 04:52:12","c33429291dc7a384f95165972fddd116","128.12.122.24","Mozilla/5.0 (Windows NT 10.0; Win64; x64; rv:123.0) Gecko/20100101 Firefox/123.0","","Firefox","123.0","Windows","10.0","https://l.facebook.com/","en-US,en;q=0.5","IwAR0CRFrU8HfhHl5FhHk_2wqJwZKP5fdberTT2fqdS2NQiCQZhIYD1chETlg","","","","","<div style=""font-size:60px;"">+</div>","null","","","","","","","","","","","","","","","fixation","","","1391"
"","358","image-keyboard-response","119","231165","0.0-7.0-8.1","3","1","2024-03-18 04:52:12","c33429291dc7a384f95165972fddd116","128.12.122.24","Mozilla/5.0 (Windows NT 10.0; Win64; x64; rv:123.0) Gecko/20100101 Firefox/123.0","","Firefox","123.0","Windows","10.0","https://l.facebook.com/","en-US,en;q=0.5","IwAR0CRFrU8HfhHl5FhHk_2wqJwZKP5fdberTT2fqdS2NQiCQZhIYD1chETlg","","","","","img/blue.png","f","","","","","","","","","","","","","","","response","f","true",""
"","null","html-keyboard-response","120","232647","0.0-7.0-9.1","3","1","2024-03-18 04:52:12","c33429291dc7a384f95165972fddd116","128.12.122.24","Mozilla/5.0 (Windows NT 10.0; Win64; x64; rv:123.0) Gecko/20100101 Firefox/123.0","","Firefox","123.0","Windows","10.0","https://l.facebook.com/","en-US,en;q=0.5","IwAR0CRFrU8HfhHl5FhHk_2wqJwZKP5fdberTT2fqdS2NQiCQZhIYD1chETlg","","","","","<div style=""font-size:60px;"">+</div>","null","","","","","","","","","","","","","","","fixation","","","1457"
"","313","image-keyboard-response","121","232963","0.0-7.0-10.1","3","1","2024-03-18 04:52:12","c33429291dc7a384f95165972fddd116","128.12.122.24","Mozilla/5.0 (Windows NT 10.0; Win64; x64; rv:123.0) Gecko/20100101 Firefox/123.0","","Firefox","123.0","Windows","10.0","https://l.facebook.com/","en-US,en;q=0.5","IwAR0CRFrU8HfhHl5FhHk_2wqJwZKP5fdberTT2fqdS2NQiCQZhIYD1chETlg","","","","","img/blue.png","f","","","","","","","","","","","","","","","response","f","true",""
"","null","html-keyboard-response","122","234433","0.0-7.0-11.1","3","1","2024-03-18 04:52:12","c33429291dc7a384f95165972fddd116","128.12.122.24","Mozilla/5.0 (Windows NT 10.0; Win64; x64; rv:123.0) Gecko/20100101 Firefox/123.0","","Firefox","123.0","Windows","10.0","https://l.facebook.com/","en-US,en;q=0.5","IwAR0CRFrU8HfhHl5FhHk_2wqJwZKP5fdberTT2fqdS2NQiCQZhIYD1chETlg","","","","","<div style=""font-size:60px;"">+</div>","null","","","","","","","","","","","","","","","fixation","","","1458"
"","309","image-keyboard-response","123","234753","0.0-7.0-12.1","3","1","2024-03-18 04:52:12","c33429291dc7a384f95165972fddd116","128.12.122.24","Mozilla/5.0 (Windows NT 10.0; Win64; x64; rv:123.0) Gecko/20100101 Firefox/123.0","","Firefox","123.0","Windows","10.0","https://l.facebook.com/","en-US,en;q=0.5","IwAR0CRFrU8HfhHl5FhHk_2wqJwZKP5fdberTT2fqdS2NQiCQZhIYD1chETlg","","","","","img/blue.png","f","","","","","","","","","","","","","","","response","f","true",""
"","null","html-keyboard-response","124","236229","0.0-7.0-13.1","3","1","2024-03-18 04:52:12","c33429291dc7a384f95165972fddd116","128.12.122.24","Mozilla/5.0 (Windows NT 10.0; Win64; x64; rv:123.0) Gecko/20100101 Firefox/123.0","","Firefox","123.0","Windows","10.0","https://l.facebook.com/","en-US,en;q=0.5","IwAR0CRFrU8HfhHl5FhHk_2wqJwZKP5fdberTT2fqdS2NQiCQZhIYD1chETlg","","","","","<div style=""font-size:60px;"">+</div>","null","","","","","","","","","","","","","","","fixation","","","1461"
"","347","image-keyboard-response","125","236584","0.0-7.0-14.1","3","1","2024-03-18 04:52:12","c33429291dc7a384f95165972fddd116","128.12.122.24","Mozilla/5.0 (Windows NT 10.0; Win64; x64; rv:123.0) Gecko/20100101 Firefox/123.0","","Firefox","123.0","Windows","10.0","https://l.facebook.com/","en-US,en;q=0.5","IwAR0CRFrU8HfhHl5FhHk_2wqJwZKP5fdberTT2fqdS2NQiCQZhIYD1chETlg","","","","","img/blue.png","f","","","","","","","","","","","","","","","response","f","true",""
"","null","html-keyboard-response","126","238049","0.0-7.0-15.1","3","1","2024-03-18 04:52:12","c33429291dc7a384f95165972fddd116","128.12.122.24","Mozilla/5.0 (Windows NT 10.0; Win64; x64; rv:123.0) Gecko/20100101 Firefox/123.0","","Firefox","123.0","Windows","10.0","https://l.facebook.com/","en-US,en;q=0.5","IwAR0CRFrU8HfhHl5FhHk_2wqJwZKP5fdberTT2fqdS2NQiCQZhIYD1chETlg","","","","","<div style=""font-size:60px;"">+</div>","null","","","","","","","","","","","","","","","fixation","","","1447"
"","322","image-keyboard-response","127","238384","0.0-7.0-16.1","3","1","2024-03-18 04:52:12","c33429291dc7a384f95165972fddd116","128.12.122.24","Mozilla/5.0 (Windows NT 10.0; Win64; x64; rv:123.0) Gecko/20100101 Firefox/123.0","","Firefox","123.0","Windows","10.0","https://l.facebook.com/","en-US,en;q=0.5","IwAR0CRFrU8HfhHl5FhHk_2wqJwZKP5fdberTT2fqdS2NQiCQZhIYD1chETlg","","","","","img/blue.png","f","","","","","","","","","","","","","","","response","f","true",""
"","null","html-keyboard-response","128","239865","0.0-7.0-17.1","3","1","2024-03-18 04:52:12","c33429291dc7a384f95165972fddd116","128.12.122.24","Mozilla/5.0 (Windows NT 10.0; Win64; x64; rv:123.0) Gecko/20100101 Firefox/123.0","","Firefox","123.0","Windows","10.0","https://l.facebook.com/","en-US,en;q=0.5","IwAR0CRFrU8HfhHl5FhHk_2wqJwZKP5fdberTT2fqdS2NQiCQZhIYD1chETlg","","","","","<div style=""font-size:60px;"">+</div>","null","","","","","","","","","","","","","","","fixation","","","1468"
"","311","image-keyboard-response","129","240187","0.0-7.0-18.1","3","1","2024-03-18 04:52:12","c33429291dc7a384f95165972fddd116","128.12.122.24","Mozilla/5.0 (Windows NT 10.0; Win64; x64; rv:123.0) Gecko/20100101 Firefox/123.0","","Firefox","123.0","Windows","10.0","https://l.facebook.com/","en-US,en;q=0.5","IwAR0CRFrU8HfhHl5FhHk_2wqJwZKP5fdberTT2fqdS2NQiCQZhIYD1chETlg","","","","","img/blue.png","f","","","","","","","","","","","","","","","response","f","true",""
"","null","html-keyboard-response","130","241594","0.0-7.0-19.1","3","1","2024-03-18 04:52:12","c33429291dc7a384f95165972fddd116","128.12.122.24","Mozilla/5.0 (Windows NT 10.0; Win64; x64; rv:123.0) Gecko/20100101 Firefox/123.0","","Firefox","123.0","Windows","10.0","https://l.facebook.com/","en-US,en;q=0.5","IwAR0CRFrU8HfhHl5FhHk_2wqJwZKP5fdberTT2fqdS2NQiCQZhIYD1chETlg","","","","","<div style=""font-size:60px;"">+</div>","null","","","","","","","","","","","","","","","fixation","","","1391"
"","286","image-keyboard-response","131","241883","0.0-7.0-20.1","3","1","2024-03-18 04:52:12","c33429291dc7a384f95165972fddd116","128.12.122.24","Mozilla/5.0 (Windows NT 10.0; Win64; x64; rv:123.0) Gecko/20100101 Firefox/123.0","","Firefox","123.0","Windows","10.0","https://l.facebook.com/","en-US,en;q=0.5","IwAR0CRFrU8HfhHl5FhHk_2wqJwZKP5fdberTT2fqdS2NQiCQZhIYD1chETlg","","","","","img/blue.png","f","","","","","","","","","","","","","","","response","f","true",""
"","null","html-keyboard-response","132","243180","0.0-7.0-21.1","3","1","2024-03-18 04:52:12","c33429291dc7a384f95165972fddd116","128.12.122.24","Mozilla/5.0 (Windows NT 10.0; Win64; x64; rv:123.0) Gecko/20100101 Firefox/123.0","","Firefox","123.0","Windows","10.0","https://l.facebook.com/","en-US,en;q=0.5","IwAR0CRFrU8HfhHl5FhHk_2wqJwZKP5fdberTT2fqdS2NQiCQZhIYD1chETlg","","","","","<div style=""font-size:60px;"">+</div>","null","","","","","","","","","","","","","","","fixation","","","1288"
"","344","image-keyboard-response","133","243535","0.0-7.0-22.1","3","1","2024-03-18 04:52:12","c33429291dc7a384f95165972fddd116","128.12.122.24","Mozilla/5.0 (Windows NT 10.0; Win64; x64; rv:123.0) Gecko/20100101 Firefox/123.0","","Firefox","123.0","Windows","10.0","https://l.facebook.com/","en-US,en;q=0.5","IwAR0CRFrU8HfhHl5FhHk_2wqJwZKP5fdberTT2fqdS2NQiCQZhIYD1chETlg","","","","","img/blue.png","f","","","","","","","","","","","","","","","response","f","true",""
"","null","html-keyboard-response","134","244697","0.0-7.0-23.1","3","1","2024-03-18 04:52:12","c33429291dc7a384f95165972fddd116","128.12.122.24","Mozilla/5.0 (Windows NT 10.0; Win64; x64; rv:123.0) Gecko/20100101 Firefox/123.0","","Firefox","123.0","Windows","10.0","https://l.facebook.com/","en-US,en;q=0.5","IwAR0CRFrU8HfhHl5FhHk_2wqJwZKP5fdberTT2fqdS2NQiCQZhIYD1chETlg","","","","","<div style=""font-size:60px;"">+</div>","null","","","","","","","","","","","","","","","fixation","","","1135"
"","null","image-keyboard-response","135","245722","0.0-7.0-24.1","3","1","2024-03-18 04:52:12","c33429291dc7a384f95165972fddd116","128.12.122.24","Mozilla/5.0 (Windows NT 10.0; Win64; x64; rv:123.0) Gecko/20100101 Firefox/123.0","","Firefox","123.0","Windows","10.0","https://l.facebook.com/","en-US,en;q=0.5","IwAR0CRFrU8HfhHl5FhHk_2wqJwZKP5fdberTT2fqdS2NQiCQZhIYD1chETlg","","","","","img/orange.png","null","","","","","","","","","","","","","","","response","null","true",""
"","null","html-keyboard-response","136","247074","0.0-7.0-25.1","3","1","2024-03-18 04:52:12","c33429291dc7a384f95165972fddd116","128.12.122.24","Mozilla/5.0 (Windows NT 10.0; Win64; x64; rv:123.0) Gecko/20100101 Firefox/123.0","","Firefox","123.0","Windows","10.0","https://l.facebook.com/","en-US,en;q=0.5","IwAR0CRFrU8HfhHl5FhHk_2wqJwZKP5fdberTT2fqdS2NQiCQZhIYD1chETlg","","","","","<div style=""font-size:60px;"">+</div>","null","","","","","","","","","","","","","","","fixation","","","1330"
"","302","image-keyboard-response","137","247387","0.0-7.0-26.1","3","1","2024-03-18 04:52:12","c33429291dc7a384f95165972fddd116","128.12.122.24","Mozilla/5.0 (Windows NT 10.0; Win64; x64; rv:123.0) Gecko/20100101 Firefox/123.0","","Firefox","123.0","Windows","10.0","https://l.facebook.com/","en-US,en;q=0.5","IwAR0CRFrU8HfhHl5FhHk_2wqJwZKP5fdberTT2fqdS2NQiCQZhIYD1chETlg","","","","","img/blue.png","f","","","","","","","","","","","","","","","response","f","true",""
"","null","html-keyboard-response","138","248769","0.0-7.0-27.1","3","1","2024-03-18 04:52:12","c33429291dc7a384f95165972fddd116","128.12.122.24","Mozilla/5.0 (Windows NT 10.0; Win64; x64; rv:123.0) Gecko/20100101 Firefox/123.0","","Firefox","123.0","Windows","10.0","https://l.facebook.com/","en-US,en;q=0.5","IwAR0CRFrU8HfhHl5FhHk_2wqJwZKP5fdberTT2fqdS2NQiCQZhIYD1chETlg","","","","","<div style=""font-size:60px;"">+</div>","null","","","","","","","","","","","","","","","fixation","","","1365"
"","288","image-keyboard-response","139","249070","0.0-7.0-28.1","3","1","2024-03-18 04:52:12","c33429291dc7a384f95165972fddd116","128.12.122.24","Mozilla/5.0 (Windows NT 10.0; Win64; x64; rv:123.0) Gecko/20100101 Firefox/123.0","","Firefox","123.0","Windows","10.0","https://l.facebook.com/","en-US,en;q=0.5","IwAR0CRFrU8HfhHl5FhHk_2wqJwZKP5fdberTT2fqdS2NQiCQZhIYD1chETlg","","","","","img/blue.png","f","","","","","","","","","","","","","","","response","f","true",""
"","null","html-keyboard-response","140","250250","0.0-7.0-29.1","3","1","2024-03-18 04:52:12","c33429291dc7a384f95165972fddd116","128.12.122.24","Mozilla/5.0 (Windows NT 10.0; Win64; x64; rv:123.0) Gecko/20100101 Firefox/123.0","","Firefox","123.0","Windows","10.0","https://l.facebook.com/","en-US,en;q=0.5","IwAR0CRFrU8HfhHl5FhHk_2wqJwZKP5fdberTT2fqdS2NQiCQZhIYD1chETlg","","","","","<div style=""font-size:60px;"">+</div>","null","","","","","","","","","","","","","","","fixation","","","1167"
"","null","image-keyboard-response","141","251274","0.0-7.0-30.1","3","1","2024-03-18 04:52:12","c33429291dc7a384f95165972fddd116","128.12.122.24","Mozilla/5.0 (Windows NT 10.0; Win64; x64; rv:123.0) Gecko/20100101 Firefox/123.0","","Firefox","123.0","Windows","10.0","https://l.facebook.com/","en-US,en;q=0.5","IwAR0CRFrU8HfhHl5FhHk_2wqJwZKP5fdberTT2fqdS2NQiCQZhIYD1chETlg","","","","","img/orange.png","null","","","","","","","","","","","","","","","response","null","true",""
"","null","html-keyboard-response","142","252639","0.0-7.0-31.1","3","1","2024-03-18 04:52:12","c33429291dc7a384f95165972fddd116","128.12.122.24","Mozilla/5.0 (Windows NT 10.0; Win64; x64; rv:123.0) Gecko/20100101 Firefox/123.0","","Firefox","123.0","Windows","10.0","https://l.facebook.com/","en-US,en;q=0.5","IwAR0CRFrU8HfhHl5FhHk_2wqJwZKP5fdberTT2fqdS2NQiCQZhIYD1chETlg","","","","","<div style=""font-size:60px;"">+</div>","null","","","","","","","","","","","","","","","fixation","","","1347"
"","null","image-keyboard-response","143","253658","0.0-7.0-32.1","3","1","2024-03-18 04:52:12","c33429291dc7a384f95165972fddd116","128.12.122.24","Mozilla/5.0 (Windows NT 10.0; Win64; x64; rv:123.0) Gecko/20100101 Firefox/123.0","","Firefox","123.0","Windows","10.0","https://l.facebook.com/","en-US,en;q=0.5","IwAR0CRFrU8HfhHl5FhHk_2wqJwZKP5fdberTT2fqdS2NQiCQZhIYD1chETlg","","","","","img/orange.png","null","","","","","","","","","","","","","","","response","null","true",""
"","null","html-keyboard-response","144","254904","0.0-7.0-33.1","3","1","2024-03-18 04:52:12","c33429291dc7a384f95165972fddd116","128.12.122.24","Mozilla/5.0 (Windows NT 10.0; Win64; x64; rv:123.0) Gecko/20100101 Firefox/123.0","","Firefox","123.0","Windows","10.0","https://l.facebook.com/","en-US,en;q=0.5","IwAR0CRFrU8HfhHl5FhHk_2wqJwZKP5fdberTT2fqdS2NQiCQZhIYD1chETlg","","","","","<div style=""font-size:60px;"">+</div>","null","","","","","","","","","","","","","","","fixation","","","1220"
"","null","image-keyboard-response","145","255910","0.0-7.0-34.1","3","1","2024-03-18 04:52:12","c33429291dc7a384f95165972fddd116","128.12.122.24","Mozilla/5.0 (Windows NT 10.0; Win64; x64; rv:123.0) Gecko/20100101 Firefox/123.0","","Firefox","123.0","Windows","10.0","https://l.facebook.com/","en-US,en;q=0.5","IwAR0CRFrU8HfhHl5FhHk_2wqJwZKP5fdberTT2fqdS2NQiCQZhIYD1chETlg","","","","","img/orange.png","null","","","","","","","","","","","","","","","response","null","true",""
"","null","html-keyboard-response","146","257089","0.0-7.0-35.1","3","1","2024-03-18 04:52:12","c33429291dc7a384f95165972fddd116","128.12.122.24","Mozilla/5.0 (Windows NT 10.0; Win64; x64; rv:123.0) Gecko/20100101 Firefox/123.0","","Firefox","123.0","Windows","10.0","https://l.facebook.com/","en-US,en;q=0.5","IwAR0CRFrU8HfhHl5FhHk_2wqJwZKP5fdberTT2fqdS2NQiCQZhIYD1chETlg","","","","","<div style=""font-size:60px;"">+</div>","null","","","","","","","","","","","","","","","fixation","","","1168"
"","340","image-keyboard-response","147","257440","0.0-7.0-36.1","3","1","2024-03-18 04:52:12","c33429291dc7a384f95165972fddd116","128.12.122.24","Mozilla/5.0 (Windows NT 10.0; Win64; x64; rv:123.0) Gecko/20100101 Firefox/123.0","","Firefox","123.0","Windows","10.0","https://l.facebook.com/","en-US,en;q=0.5","IwAR0CRFrU8HfhHl5FhHk_2wqJwZKP5fdberTT2fqdS2NQiCQZhIYD1chETlg","","","","","img/blue.png","f","","","","","","","","","","","","","","","response","f","true",""
"","null","html-keyboard-response","148","258625","0.0-7.0-37.1","3","1","2024-03-18 04:52:12","c33429291dc7a384f95165972fddd116","128.12.122.24","Mozilla/5.0 (Windows NT 10.0; Win64; x64; rv:123.0) Gecko/20100101 Firefox/123.0","","Firefox","123.0","Windows","10.0","https://l.facebook.com/","en-US,en;q=0.5","IwAR0CRFrU8HfhHl5FhHk_2wqJwZKP5fdberTT2fqdS2NQiCQZhIYD1chETlg","","","","","<div style=""font-size:60px;"">+</div>","null","","","","","","","","","","","","","","","fixation","","","1168"
"","363","image-keyboard-response","149","259000","0.0-7.0-38.1","3","1","2024-03-18 04:52:12","c33429291dc7a384f95165972fddd116","128.12.122.24","Mozilla/5.0 (Windows NT 10.0; Win64; x64; rv:123.0) Gecko/20100101 Firefox/123.0","","Firefox","123.0","Windows","10.0","https://l.facebook.com/","en-US,en;q=0.5","IwAR0CRFrU8HfhHl5FhHk_2wqJwZKP5fdberTT2fqdS2NQiCQZhIYD1chETlg","","","","","img/blue.png","f","","","","","","","","","","","","","","","response","f","true",""
"","null","html-keyboard-response","150","260261","0.0-7.0-39.1","3","1","2024-03-18 04:52:12","c33429291dc7a384f95165972fddd116","128.12.122.24","Mozilla/5.0 (Windows NT 10.0; Win64; x64; rv:123.0) Gecko/20100101 Firefox/123.0","","Firefox","123.0","Windows","10.0","https://l.facebook.com/","en-US,en;q=0.5","IwAR0CRFrU8HfhHl5FhHk_2wqJwZKP5fdberTT2fqdS2NQiCQZhIYD1chETlg","","","","","<div style=""font-size:60px;"">+</div>","null","","","","","","","","","","","","","","","fixation","","","1245"
"","302","image-keyboard-response","151","260574","0.0-7.0-40.1","3","1","2024-03-18 04:52:12","c33429291dc7a384f95165972fddd116","128.12.122.24","Mozilla/5.0 (Windows NT 10.0; Win64; x64; rv:123.0) Gecko/20100101 Firefox/123.0","","Firefox","123.0","Windows","10.0","https://l.facebook.com/","en-US,en;q=0.5","IwAR0CRFrU8HfhHl5FhHk_2wqJwZKP5fdberTT2fqdS2NQiCQZhIYD1chETlg","","","","","img/blue.png","f","","","","","","","","","","","","","","","response","f","true",""
"","null","html-keyboard-response","152","261658","0.0-7.0-41.1","3","1","2024-03-18 04:52:12","c33429291dc7a384f95165972fddd116","128.12.122.24","Mozilla/5.0 (Windows NT 10.0; Win64; x64; rv:123.0) Gecko/20100101 Firefox/123.0","","Firefox","123.0","Windows","10.0","https://l.facebook.com/","en-US,en;q=0.5","IwAR0CRFrU8HfhHl5FhHk_2wqJwZKP5fdberTT2fqdS2NQiCQZhIYD1chETlg","","","","","<div style=""font-size:60px;"">+</div>","null","","","","","","","","","","","","","","","fixation","","","1057"
"","335","image-keyboard-response","153","262006","0.0-7.0-42.1","3","1","2024-03-18 04:52:12","c33429291dc7a384f95165972fddd116","128.12.122.24","Mozilla/5.0 (Windows NT 10.0; Win64; x64; rv:123.0) Gecko/20100101 Firefox/123.0","","Firefox","123.0","Windows","10.0","https://l.facebook.com/","en-US,en;q=0.5","IwAR0CRFrU8HfhHl5FhHk_2wqJwZKP5fdberTT2fqdS2NQiCQZhIYD1chETlg","","","","","img/blue.png","f","","","","","","","","","","","","","","","response","f","true",""
"","null","html-keyboard-response","154","263024","0.0-7.0-43.1","3","1","2024-03-18 04:52:12","c33429291dc7a384f95165972fddd116","128.12.122.24","Mozilla/5.0 (Windows NT 10.0; Win64; x64; rv:123.0) Gecko/20100101 Firefox/123.0","","Firefox","123.0","Windows","10.0","https://l.facebook.com/","en-US,en;q=0.5","IwAR0CRFrU8HfhHl5FhHk_2wqJwZKP5fdberTT2fqdS2NQiCQZhIYD1chETlg","","","","","<div style=""font-size:60px;"">+</div>","null","","","","","","","","","","","","","","","fixation","","","999"
"","345","image-keyboard-response","155","263383","0.0-7.0-44.1","3","1","2024-03-18 04:52:12","c33429291dc7a384f95165972fddd116","128.12.122.24","Mozilla/5.0 (Windows NT 10.0; Win64; x64; rv:123.0) Gecko/20100101 Firefox/123.0","","Firefox","123.0","Windows","10.0","https://l.facebook.com/","en-US,en;q=0.5","IwAR0CRFrU8HfhHl5FhHk_2wqJwZKP5fdberTT2fqdS2NQiCQZhIYD1chETlg","","","","","img/blue.png","f","","","","","","","","","","","","","","","response","f","true",""
"","null","html-keyboard-response","156","264327","0.0-7.0-45.1","3","1","2024-03-18 04:52:12","c33429291dc7a384f95165972fddd116","128.12.122.24","Mozilla/5.0 (Windows NT 10.0; Win64; x64; rv:123.0) Gecko/20100101 Firefox/123.0","","Firefox","123.0","Windows","10.0","https://l.facebook.com/","en-US,en;q=0.5","IwAR0CRFrU8HfhHl5FhHk_2wqJwZKP5fdberTT2fqdS2NQiCQZhIYD1chETlg","","","","","<div style=""font-size:60px;"">+</div>","null","","","","","","","","","","","","","","","fixation","","","918"
"","335","image-keyboard-response","157","264676","0.0-7.0-46.1","3","1","2024-03-18 04:52:12","c33429291dc7a384f95165972fddd116","128.12.122.24","Mozilla/5.0 (Windows NT 10.0; Win64; x64; rv:123.0) Gecko/20100101 Firefox/123.0","","Firefox","123.0","Windows","10.0","https://l.facebook.com/","en-US,en;q=0.5","IwAR0CRFrU8HfhHl5FhHk_2wqJwZKP5fdberTT2fqdS2NQiCQZhIYD1chETlg","","","","","img/blue.png","f","","","","","","","","","","","","","","","response","f","true",""
"","null","html-keyboard-response","158","265739","0.0-7.0-47.1","3","1","2024-03-18 04:52:12","c33429291dc7a384f95165972fddd116","128.12.122.24","Mozilla/5.0 (Windows NT 10.0; Win64; x64; rv:123.0) Gecko/20100101 Firefox/123.0","","Firefox","123.0","Windows","10.0","https://l.facebook.com/","en-US,en;q=0.5","IwAR0CRFrU8HfhHl5FhHk_2wqJwZKP5fdberTT2fqdS2NQiCQZhIYD1chETlg","","","","","<div style=""font-size:60px;"">+</div>","null","","","","","","","","","","","","","","","fixation","","","1035"
"","313","image-keyboard-response","159","266074","0.0-7.0-48.1","3","1","2024-03-18 04:52:12","c33429291dc7a384f95165972fddd116","128.12.122.24","Mozilla/5.0 (Windows NT 10.0; Win64; x64; rv:123.0) Gecko/20100101 Firefox/123.0","","Firefox","123.0","Windows","10.0","https://l.facebook.com/","en-US,en;q=0.5","IwAR0CRFrU8HfhHl5FhHk_2wqJwZKP5fdberTT2fqdS2NQiCQZhIYD1chETlg","","","","","img/blue.png","f","","","","","","","","","","","","","","","response","f","true",""
"","null","html-keyboard-response","160","267134","0.0-7.0-49.1","3","1","2024-03-18 04:52:12","c33429291dc7a384f95165972fddd116","128.12.122.24","Mozilla/5.0 (Windows NT 10.0; Win64; x64; rv:123.0) Gecko/20100101 Firefox/123.0","","Firefox","123.0","Windows","10.0","https://l.facebook.com/","en-US,en;q=0.5","IwAR0CRFrU8HfhHl5FhHk_2wqJwZKP5fdberTT2fqdS2NQiCQZhIYD1chETlg","","","","","<div style=""font-size:60px;"">+</div>","null","","","","","","","","","","","","","","","fixation","","","1036"
"","346","image-keyboard-response","161","267499","0.0-7.0-50.1","3","1","2024-03-18 04:52:12","c33429291dc7a384f95165972fddd116","128.12.122.24","Mozilla/5.0 (Windows NT 10.0; Win64; x64; rv:123.0) Gecko/20100101 Firefox/123.0","","Firefox","123.0","Windows","10.0","https://l.facebook.com/","en-US,en;q=0.5","IwAR0CRFrU8HfhHl5FhHk_2wqJwZKP5fdberTT2fqdS2NQiCQZhIYD1chETlg","","","","","img/blue.png","f","","","","","","","","","","","","","","","response","f","true",""
"","null","html-keyboard-response","162","268472","0.0-7.0-51.1","3","1","2024-03-18 04:52:12","c33429291dc7a384f95165972fddd116","128.12.122.24","Mozilla/5.0 (Windows NT 10.0; Win64; x64; rv:123.0) Gecko/20100101 Firefox/123.0","","Firefox","123.0","Windows","10.0","https://l.facebook.com/","en-US,en;q=0.5","IwAR0CRFrU8HfhHl5FhHk_2wqJwZKP5fdberTT2fqdS2NQiCQZhIYD1chETlg","","","","","<div style=""font-size:60px;"">+</div>","null","","","","","","","","","","","","","","","fixation","","","957"
"","null","image-keyboard-response","163","270489","0.0-7.0-52.1","3","1","2024-03-18 04:52:12","c33429291dc7a384f95165972fddd116","128.12.122.24","Mozilla/5.0 (Windows NT 10.0; Win64; x64; rv:123.0) Gecko/20100101 Firefox/123.0","","Firefox","123.0","Windows","10.0","https://l.facebook.com/","en-US,en;q=0.5","IwAR0CRFrU8HfhHl5FhHk_2wqJwZKP5fdberTT2fqdS2NQiCQZhIYD1chETlg","","","","","img/orange.png","null","","","","","","","","","","","","","","","response","null","true",""
"","null","html-keyboard-response","164","271482","0.0-7.0-53.1","3","1","2024-03-18 04:52:12","c33429291dc7a384f95165972fddd116","128.12.122.24","Mozilla/5.0 (Windows NT 10.0; Win64; x64; rv:123.0) Gecko/20100101 Firefox/123.0","","Firefox","123.0","Windows","10.0","https://l.facebook.com/","en-US,en;q=0.5","IwAR0CRFrU8HfhHl5FhHk_2wqJwZKP5fdberTT2fqdS2NQiCQZhIYD1chETlg","","","","","<div style=""font-size:60px;"">+</div>","null","","","","","","","","","","","","","","","fixation","","","966"
"","446","image-keyboard-response","165","271943","0.0-7.0-54.1","3","1","2024-03-18 04:52:12","c33429291dc7a384f95165972fddd116","128.12.122.24","Mozilla/5.0 (Windows NT 10.0; Win64; x64; rv:123.0) Gecko/20100101 Firefox/123.0","","Firefox","123.0","Windows","10.0","https://l.facebook.com/","en-US,en;q=0.5","IwAR0CRFrU8HfhHl5FhHk_2wqJwZKP5fdberTT2fqdS2NQiCQZhIYD1chETlg","","","","","img/blue.png","f","","","","","","","","","","","","","","","response","f","true",""
"","null","html-keyboard-response","166","273050","0.0-7.0-55.1","3","1","2024-03-18 04:52:12","c33429291dc7a384f95165972fddd116","128.12.122.24","Mozilla/5.0 (Windows NT 10.0; Win64; x64; rv:123.0) Gecko/20100101 Firefox/123.0","","Firefox","123.0","Windows","10.0","https://l.facebook.com/","en-US,en;q=0.5","IwAR0CRFrU8HfhHl5FhHk_2wqJwZKP5fdberTT2fqdS2NQiCQZhIYD1chETlg","","","","","<div style=""font-size:60px;"">+</div>","null","","","","","","","","","","","","","","","fixation","","","1082"
"","358","image-keyboard-response","167","273421","0.0-7.0-56.1","3","1","2024-03-18 04:52:12","c33429291dc7a384f95165972fddd116","128.12.122.24","Mozilla/5.0 (Windows NT 10.0; Win64; x64; rv:123.0) Gecko/20100101 Firefox/123.0","","Firefox","123.0","Windows","10.0","https://l.facebook.com/","en-US,en;q=0.5","IwAR0CRFrU8HfhHl5FhHk_2wqJwZKP5fdberTT2fqdS2NQiCQZhIYD1chETlg","","","","","img/blue.png","f","","","","","","","","","","","","","","","response","f","true",""
"","null","html-keyboard-response","168","274397","0.0-7.0-57.1","3","1","2024-03-18 04:52:12","c33429291dc7a384f95165972fddd116","128.12.122.24","Mozilla/5.0 (Windows NT 10.0; Win64; x64; rv:123.0) Gecko/20100101 Firefox/123.0","","Firefox","123.0","Windows","10.0","https://l.facebook.com/","en-US,en;q=0.5","IwAR0CRFrU8HfhHl5FhHk_2wqJwZKP5fdberTT2fqdS2NQiCQZhIYD1chETlg","","","","","<div style=""font-size:60px;"">+</div>","null","","","","","","","","","","","","","","","fixation","","","952"
"","332","image-keyboard-response","169","274736","0.0-7.0-58.1","3","1","2024-03-18 04:52:12","c33429291dc7a384f95165972fddd116","128.12.122.24","Mozilla/5.0 (Windows NT 10.0; Win64; x64; rv:123.0) Gecko/20100101 Firefox/123.0","","Firefox","123.0","Windows","10.0","https://l.facebook.com/","en-US,en;q=0.5","IwAR0CRFrU8HfhHl5FhHk_2wqJwZKP5fdberTT2fqdS2NQiCQZhIYD1chETlg","","","","","img/blue.png","f","","","","","","","","","","","","","","","response","f","true",""
"","null","html-keyboard-response","170","275711","0.0-7.0-59.1","3","1","2024-03-18 04:52:12","c33429291dc7a384f95165972fddd116","128.12.122.24","Mozilla/5.0 (Windows NT 10.0; Win64; x64; rv:123.0) Gecko/20100101 Firefox/123.0","","Firefox","123.0","Windows","10.0","https://l.facebook.com/","en-US,en;q=0.5","IwAR0CRFrU8HfhHl5FhHk_2wqJwZKP5fdberTT2fqdS2NQiCQZhIYD1chETlg","","","","","<div style=""font-size:60px;"">+</div>","null","","","","","","","","","","","","","","","fixation","","","964"
"","36522","html-keyboard-response","171","312248","0.0-8.0","3","1","2024-03-18 04:52:12","c33429291dc7a384f95165972fddd116","128.12.122.24","Mozilla/5.0 (Windows NT 10.0; Win64; x64; rv:123.0) Gecko/20100101 Firefox/123.0","","Firefox","123.0","Windows","10.0","https://l.facebook.com/","en-US,en;q=0.5","IwAR0CRFrU8HfhHl5FhHk_2wqJwZKP5fdberTT2fqdS2NQiCQZhIYD1chETlg","","","","","<p>You responded correctly on 100% of the trials.</p>
        <p>Your average response time was 278ms.</p>
        <p>Press any key to complete the experiment. Thank you!</p>"," ","","","","","","","","","","","","","","","","","",""
"","2575","html-keyboard-response","172","314841","0.0-9.0","3","1","2024-03-18 04:52:12","c33429291dc7a384f95165972fddd116","128.12.122.24","Mozilla/5.0 (Windows NT 10.0; Win64; x64; rv:123.0) Gecko/20100101 Firefox/123.0","","Firefox","123.0","Windows","10.0","https://l.facebook.com/","en-US,en;q=0.5","IwAR0CRFrU8HfhHl5FhHk_2wqJwZKP5fdberTT2fqdS2NQiCQZhIYD1chETlg","","","","","<p>Great work! This experiment is over now. Please press any button.</p>"," ","","","","","","","","","","","","","","","","","",""
